time_tick,acc_X_value,acc_Y_value,acc_Z_value
0.015544,2.055196,-3.443583,-8.889240
0.035159,1.972593,-3.510324,-8.908544
0.068384,2.152015,-3.435203,-8.944758
0.101438,2.052802,-3.462588,-8.926950
0.135070,2.215763,-3.449868,-8.896572
0.168465,1.994142,-3.480396,-8.946553
0.201447,1.887147,-3.499550,-8.904204
0.234703,2.015541,-3.557462,-8.837613
0.268462,1.855273,-3.543695,-8.880860
0.301815,1.983966,-3.552224,-8.892981
0.336718,1.860511,-3.526186,-8.905401
0.368479,1.844050,-3.479797,-8.876371
0.401460,1.938924,-3.465880,-8.902259
0.435703,1.839710,-3.388814,-8.967952
0.468850,1.935183,-3.304864,-8.954484
0.501267,2.015990,-3.360382,-8.905551
0.535133,1.975437,-3.347513,-8.973339
0.568502,1.889990,-3.358137,-8.982168
0.601349,1.869789,-3.359634,-8.967354
0.635152,1.809632,-3.439543,-8.941316
0.670508,1.826691,-3.507930,-8.900912
0.701463,1.978878,-3.457650,-8.885200
0.735133,2.087669,-3.394501,-8.863352
0.768679,2.326798,-3.423980,-9.005064
0.801244,1.744687,-3.507930,-8.920066
0.835145,2.117597,-3.417097,-8.953138
0.867924,2.097096,-3.547885,-8.747229
0.901460,1.399311,-3.514814,-8.790476
0.935134,2.279960,-3.412458,-8.885499
0.969677,2.310786,-3.504189,-8.935779
1.001332,2.423617,-3.544592,-8.805290
1.035146,2.567424,-3.515562,-8.742590
1.068502,2.185236,-3.575269,-8.913332
1.101847,2.241352,-3.689896,-8.913482
1.134680,1.963615,-3.705608,-8.844497
1.168469,1.833725,-3.610735,-8.782844
1.201441,1.923211,-3.619713,-8.764737
1.235187,1.870238,-3.661015,-8.748725
1.268506,2.249732,-3.450467,-8.850034
1.301555,2.187481,-3.520350,-8.907945
1.335129,2.172816,-3.561652,-8.921413
1.368944,2.220552,-3.548334,-8.911387
1.401601,2.097396,-3.499400,-8.886696
1.435176,2.185984,-3.473063,-8.904055
1.468477,2.067168,-3.460044,-8.867542
1.501751,1.925605,-3.540552,-8.835069
1.535154,2.066120,-3.603851,-8.924855
1.568484,1.918722,-3.442536,-8.928297
1.601916,2.116400,-3.451515,-9.053099
1.635409,2.033049,-3.666402,-8.800502
1.668548,1.874428,-3.505236,-8.833722
1.701492,2.077792,-3.491020,-8.765785
1.735165,1.894480,-3.551775,-8.910789
1.768528,2.120141,-3.527683,-8.720443
1.801945,0.868079,-3.294539,-9.270381
1.835073,3.459146,-3.096262,-9.193913
1.868574,1.815019,-3.639316,-8.463805
1.901206,3.121253,-3.494163,-8.851530
1.935152,2.580144,-3.768159,-8.708920
1.968538,1.722540,-3.791952,-8.971544
2.001331,2.815981,-3.928127,-8.611353
2.035151,2.155307,-3.832954,-8.520969
2.068461,2.203941,-3.740774,-8.624671
2.101496,2.183889,-3.734789,-9.120738
2.135156,2.086172,-3.606245,-8.993691
2.168490,1.797661,-3.588288,-8.720892
2.201173,1.972144,-3.308007,-8.894477
2.235156,1.826841,-3.335242,-9.030054
2.268735,1.854675,-3.438196,-8.920216
2.301339,1.927102,-3.378938,-8.888641
2.335163,1.810380,-3.398541,-8.937425
2.368473,2.060284,-3.448222,-8.935180
2.401460,1.955534,-3.478301,-8.922910
2.435143,2.069712,-3.633480,-8.980223
2.468587,1.801551,-3.620162,-8.900762
2.500950,1.515584,-3.455405,-8.916325
2.535274,1.294112,-3.408717,-8.945057
2.568474,1.372226,-3.541749,-8.981719
2.601860,1.225426,-3.463785,-8.933684
2.635229,1.544016,-3.430415,-9.040529
2.668497,1.234255,-3.506882,-8.938622
2.701288,1.170956,-3.459595,-8.993840
2.735155,0.850720,-3.412308,-9.103828
2.768499,0.689854,-3.548184,-8.965708
2.801221,1.393475,-3.696181,-8.936527
2.836389,1.589358,-3.639466,-8.946853
2.868495,1.586365,-3.507331,-8.967354
2.901253,1.549702,-3.323570,-9.062078
2.935403,1.344841,-3.397344,-9.100685
2.968530,1.710569,-3.355593,-9.115051
3.001326,1.660438,-3.367715,-9.019878
3.035106,1.608213,-3.372353,-8.999826
3.068478,2.287143,-3.381482,-9.052351
3.101493,2.211723,-3.394650,-9.076892
3.135161,1.346188,-3.392406,-8.885050
3.168636,1.414874,-3.638119,-9.047562
3.201200,1.206721,-3.601008,-8.882955
3.235138,0.429026,-3.528132,-8.734360
3.268483,1.130104,-3.636174,-9.070607
3.301734,1.412180,-3.716832,-9.023919
3.335078,1.475629,-3.733891,-9.082429
3.368501,0.895613,-4.175487,-8.081617
3.401466,2.792337,-4.629953,-7.373507
3.435152,1.544465,-4.020457,-9.211122
3.468506,2.574158,-3.468724,-9.658405
3.501314,3.223908,-4.207960,-9.212169
3.534951,1.975437,-4.800995,-8.413226
3.568498,2.014643,-4.636537,-8.387487
3.601477,1.664179,-3.887424,-8.738101
3.635378,0.215486,-3.976462,-8.733911
3.668623,1.796763,-4.401298,-8.754711
3.701767,1.010688,-4.363289,-8.494033
3.734481,1.346787,-4.644917,-8.267025
3.768456,2.023173,-4.677988,-8.298001
3.801476,1.745884,-4.742035,-8.819506
3.835085,2.528517,-4.644318,-8.215847
3.868462,1.082517,-5.150561,-8.661034
3.901995,0.983603,-4.878510,-7.603657
3.935130,3.290050,-5.476633,-8.103614
3.968544,0.195883,-5.358115,-7.728160
4.001669,1.690965,-5.250821,-7.728011
4.034807,2.212471,-4.431826,-10.109279
4.068477,0.719932,-4.266320,-9.068063
4.101501,1.717003,-4.865341,-8.673604
4.135519,2.093654,-2.620996,-9.527766
4.168463,0.300184,-4.112936,-8.080719
4.201777,0.553529,-6.110520,-9.279658
4.235070,-0.335200,-5.030248,-9.452047
4.268464,0.735645,-3.473811,-8.164669
4.301715,2.372439,-3.111975,-9.858627
4.335063,1.941767,-4.409828,-9.573258
4.368468,5.315766,-9.405508,-7.311255
4.401181,5.793876,-6.389305,-8.142372
4.435129,3.618965,-3.422783,-9.000574
4.468552,2.193915,-2.715122,-9.745048
4.501220,-3.287057,-3.462588,-9.504422
4.534586,-7.497860,-1.162875,-10.434603
4.568465,-5.765144,-2.643293,-8.809181
4.602107,-1.006199,-4.572939,-8.224975
4.635120,2.089315,-8.736903,-9.124628
4.668479,4.221876,-8.092541,-5.657850
4.702111,6.599404,-4.316002,-7.663215
4.735116,5.652762,-2.504125,-8.249067
4.768368,2.487964,-3.397194,-7.585401
4.801712,1.410834,-3.702915,-10.464382
4.835015,-0.431720,-3.851361,-9.364356
4.868376,-0.831416,-2.689533,-9.421221
4.901608,1.155094,-3.696031,-8.710117
4.935032,0.159519,-4.569647,-8.990698
4.968519,-1.129206,-0.599170,-9.339216
5.001199,-8.189360,-0.318141,-10.807363
5.034323,-5.183632,3.694684,-10.701266
5.068387,2.883919,-1.918123,-9.150068
5.101175,3.748705,-2.184039,-10.519301
5.135654,-0.920304,-1.581427,-8.312965
5.168228,-3.330753,-3.949526,-7.800288
5.201394,0.910727,-2.893795,-10.641559
5.235139,2.566377,-1.409487,-7.682819
5.268432,2.857731,-5.174653,-8.915727
5.301562,0.317842,1.267027,-10.819933
5.335304,0.981957,-4.204817,-8.423850
5.368499,-0.191244,-2.684295,-10.557609
5.401481,1.600132,-2.371392,-10.218369
5.435137,0.402091,-1.951943,-7.468679
5.468947,0.768417,-3.741373,-11.389923
5.501363,0.668455,-2.253772,-7.738037
5.534321,1.270618,-1.542669,-8.033582
5.568503,-0.118966,-3.415451,-9.674566
5.601456,1.253409,-1.353820,-9.273523
5.635092,0.530035,-4.129098,-5.402859
5.668604,-1.231561,-4.856213,-9.803858
5.701386,-0.646607,-4.414617,-10.584994
5.735133,-0.547244,-5.981528,-7.550085
5.768423,0.724422,-4.034374,-9.133906
5.801371,0.189897,-4.117725,-10.638716
5.835201,-0.616679,-4.183269,-6.678565
5.868346,-0.655137,-2.896339,-6.144040
5.901340,1.280644,-1.772521,-8.754262
5.934406,1.022810,-1.720295,-10.332845
5.968286,1.862905,-1.620932,-10.251440
6.001446,1.576937,-6.552565,-8.274956
6.034072,0.427231,-5.035186,-8.522166
6.068395,-0.465090,-5.041321,-8.595192
6.100880,0.974924,-2.789644,-7.722923
6.135064,0.317393,-5.300353,-8.833872
6.168811,1.473235,-4.212898,-9.223991
6.201219,2.026315,-3.775492,-7.676833
6.234547,0.906537,-1.807687,-8.738699
6.268489,-1.112595,-5.718605,-6.657615
6.301454,-0.693146,-3.474260,-9.842914
6.334155,0.489781,-2.719611,-10.282565
6.368462,-0.589892,-3.214181,-10.822477
6.401351,-0.852366,-4.439457,-10.420536
6.435245,1.078626,-4.831223,-9.423316
6.468331,0.108641,-6.207040,-6.731089
6.501622,0.143059,-4.244772,-9.785302
6.535454,0.364231,-4.831821,-8.827587
6.568497,-0.716790,-3.450916,-9.575652
6.601477,0.619223,-4.023300,-10.840584
6.635184,0.018107,-7.005983,-7.939307
6.668176,-0.574629,-3.653533,-8.403649
6.701382,1.966308,0.900102,-10.662808
6.735129,-1.619885,-4.876714,-9.316471
6.768195,2.159048,-3.086236,-9.406556
6.801444,0.538415,-3.666701,-6.825065
6.835147,-1.603574,-3.897750,-11.877759
6.867991,1.785091,-1.219440,-11.484797
6.901380,2.828850,-1.959724,-10.923337
6.935155,-1.443755,-4.405937,-11.091535
6.967953,0.154880,-2.778121,-10.818287
7.001484,0.416606,-2.302406,-11.295499
7.035131,0.911176,-2.812539,-9.685789
7.067864,0.096220,-2.716468,-9.958439
7.101222,-1.255504,-4.025246,-7.523449
7.135128,-2.502778,-3.166145,-6.230534
7.167833,-0.228954,-1.049745,-9.559042
7.201286,0.135277,-0.873915,-11.142115
7.235155,1.600431,0.444440,-10.721618
7.273819,-2.326798,-4.292358,-8.631106
7.301353,-0.961905,-4.728119,-9.196008
7.335121,-1.752020,-4.861750,-8.659837
7.368694,2.445764,-2.416734,-10.731195
7.401122,-0.008081,-6.307600,-8.462758
7.435132,-1.239792,-4.921906,-9.350140
7.468028,0.078263,-5.185278,-10.433106
7.501576,3.709649,-3.707404,-10.858691
7.535131,0.397003,-4.121167,-10.614922
7.567997,-1.278849,-5.681643,-7.676683
7.601802,0.979563,-2.484073,-10.349306
7.634344,1.116486,-2.044572,-10.317133
7.668398,-0.334003,-4.588651,-10.117509
7.701235,2.916691,-4.502008,-9.421520
7.735041,1.815169,-2.574308,-11.457263
7.768397,0.272949,-4.803539,-9.297167
7.801407,0.995724,-4.403693,-6.728246
7.835160,2.746696,-3.065885,-10.092519
7.867690,-1.096135,-2.743703,-8.286029
7.901260,1.764590,-2.003420,-11.710758
7.935651,0.810616,-4.433322,-6.625890
7.967631,-1.390333,-7.603059,-6.575311
8.001401,1.794818,-5.340607,-10.357387
8.035160,-0.128244,-2.011052,-10.008270
8.067521,1.204775,-3.402731,-9.779915
8.101371,1.029095,-4.591495,-11.057417
8.135133,-1.238146,-5.251121,-7.841141
8.167601,-0.086943,-3.218670,-8.329126
8.201783,0.652593,-4.509939,-8.198039
8.235132,0.694044,-3.969279,-8.459316
8.267471,0.500256,-3.196224,-9.308988
8.301050,0.503848,-3.383577,-7.660073
8.335114,1.032686,-3.108683,-10.203853
8.367641,2.536598,-2.353435,-9.541085
8.401203,-1.562871,-3.430565,-10.954911
8.434737,1.448693,-1.762046,-10.570628
8.468387,1.657146,-3.302171,-9.510258
8.501440,0.122408,-4.865640,-10.749900
8.535078,-0.236585,-5.454635,-7.239576
8.568600,0.461499,-5.051198,-9.537792
8.601355,0.000000,-4.922954,-9.076743
8.635064,-0.020202,-4.840650,-7.915513
8.668461,-0.452670,-4.308071,-8.470090
8.701366,-0.285519,-1.805592,-8.271514
8.735065,1.422955,-0.717987,-10.190984
8.768551,1.510795,-3.450168,-10.804071
8.801222,0.442195,-2.035593,-8.094786
8.835063,0.960708,-2.123583,-7.384580
8.868464,-2.205438,-5.623432,-7.665909
8.901296,-0.294647,-5.092649,-10.884878
8.935065,0.297191,-6.486124,-7.956216
8.968463,1.769229,-3.975115,-9.250029
9.001336,-0.195883,-4.173242,-8.917522
9.035492,-0.020800,-4.578027,-8.295606
9.067665,0.758839,-4.955277,-6.985183
9.101203,-0.619223,-4.506348,-8.292763
9.135067,1.104664,-1.485954,-10.845073
9.168379,1.474731,-2.362862,-10.427869
9.201340,1.158236,-3.825323,-7.912670
9.235126,-0.361537,-3.247851,-8.305932
9.267719,-0.229702,-4.268715,-8.902109
9.301822,0.464192,-3.405873,-10.035056
9.335045,-0.223716,-3.369361,-9.540037
9.368397,-0.241224,-3.185599,-9.055044
9.401239,0.959660,-3.741523,-10.075759
9.435579,-0.420197,-3.935610,-8.304435
9.468374,-0.008081,-3.357090,-10.525586
9.501154,-0.851618,-3.841783,-8.992344
9.535068,0.595729,-4.861899,-8.259243
9.568397,1.314763,-4.176984,-8.397513
9.601352,0.399996,-2.561588,-9.255716
9.635131,-0.326072,-3.029970,-10.328655
9.667991,-1.043460,-1.276903,-10.229891
9.701378,1.871285,-2.651673,-10.788508
9.735206,-0.116422,-2.998695,-9.906363
9.767959,-0.610843,-3.412308,-10.334791
9.800899,-1.792423,-3.873358,-8.618835
9.835129,0.008380,-3.314442,-8.901511
9.868041,-0.099363,-5.336866,-9.345801
9.900816,1.033883,-5.139936,-6.595663
9.935129,1.397815,-3.385223,-8.147610
9.967679,0.765274,-4.317947,-8.939969
10.001233,0.641070,-3.782674,-8.670312
10.035128,0.359592,-3.429068,-10.133222
10.067755,-0.489632,-2.218606,-7.287612
10.101162,-0.002245,-4.462652,-8.424000
10.135130,-0.907734,-3.557462,-8.376114
10.167586,0.174783,-2.796228,-8.434924
10.201278,-0.460451,-2.078840,-8.288274
10.235402,0.263671,-3.493115,-9.696564
10.267525,-0.103104,-3.777437,-8.028943
10.301833,0.879901,-1.370879,-13.598504
10.335130,-0.882744,-4.595834,-5.752574
10.367784,2.597652,-2.816280,-8.283485
10.401806,-0.239728,-3.586941,-13.848108
10.435048,0.887981,-0.781136,-13.359374
10.467605,2.532258,-2.427209,-9.776473
10.501704,-0.705866,-4.036469,-8.253856
10.534498,-0.168797,-4.837059,-6.085829
10.568374,3.381631,-3.570630,-10.853453
10.601805,-2.298815,-5.033689,-8.350376
10.635131,1.828637,-4.692653,-9.060731
10.668075,-0.385480,-4.778249,-3.607143
10.701335,0.691201,-4.867137,-2.267390
10.735174,0.747915,-6.242056,-8.143569
10.768018,-0.030826,-3.880242,-10.253684
10.801400,0.854162,-6.322564,-4.191499
10.835131,1.252212,-5.131706,-7.963100
10.867949,3.084590,-2.690580,-12.845799
10.901393,-0.043097,-6.754434,-10.597713
10.935185,4.339645,-0.457907,-12.765441
10.967524,-0.948437,-0.135726,-5.793427
11.001802,2.122087,0.888729,-10.029370
11.035131,3.787762,0.591239,-10.449567
11.067618,-2.205288,-1.776262,-11.552136
11.102256,0.100261,-8.874575,-10.653680
11.135056,0.205460,-2.361216,-6.991169
11.168395,-0.732353,-5.972400,-8.374468
11.201540,0.009428,-3.081597,-9.225188
11.234823,1.867245,-3.961647,-5.381759
11.268450,0.788020,-3.284663,-9.029006
11.301236,0.398050,-2.850548,-9.849050
11.335049,0.360939,-3.646350,-7.558016
11.368402,1.495532,-4.609003,-8.168410
11.401336,0.947240,-4.636836,-8.751568
11.435161,-0.389820,-3.511970,-9.980736
11.468380,2.337423,-2.404164,-9.401917
11.501448,0.238830,-3.751249,-7.884238
11.535058,-0.407029,-2.974902,-7.583605
11.567443,0.369917,-5.455982,-9.349841
11.601766,-0.177925,-4.444096,-9.333829
11.635105,0.329963,-3.138312,-7.899950
11.668379,1.138932,-2.749839,-9.387850
11.701738,2.624887,-4.412971,-7.836053
11.735070,0.218179,-5.129611,-6.502734
11.768395,-0.020202,-4.504103,-11.488987
11.802098,-0.350314,-4.115780,-9.390245
11.835092,1.420112,-4.032129,-8.675251
11.868412,0.919257,-2.882871,-9.081382
11.901221,0.237932,-4.125806,-9.199300
11.935107,-0.977168,-4.086599,-8.549550
11.968401,1.640536,-4.020307,-5.008400
12.000831,1.070396,-1.282590,-14.228051
12.035075,-0.302129,-2.217708,-10.015303
12.067913,-2.141241,-3.495360,-8.648315
12.101740,1.496429,-2.675466,-8.426095
12.135273,2.111911,-3.545341,-9.446211
12.167591,1.040617,-2.456838,-9.105175
12.201091,0.728761,-3.399289,-10.431610
12.235057,0.783830,-2.948415,-10.314439
12.268371,0.016610,-5.750928,-7.246310
12.301155,1.399610,-3.569433,-10.072018
12.335069,2.208580,-3.914659,-10.063339
12.368387,0.825730,-2.435738,-11.355805
12.401038,0.163560,-2.082431,-10.787311
12.435066,-2.329043,-2.177754,-7.924642
12.468371,1.852729,-1.923211,-11.924897
12.501322,0.285369,-1.553743,-13.102287
12.535068,2.264547,-2.728141,-10.403926
12.568394,-1.652956,-4.248513,-4.748320
12.601128,1.480567,-4.003996,-9.443368
12.635264,-0.113130,-3.256081,-9.308240
12.668360,2.120291,-3.672687,-8.900314
12.701363,1.693060,-3.581554,-4.909486
12.735095,0.833062,-5.059278,-8.007394
12.767588,0.726217,-5.774721,-10.440888
12.801153,1.122023,-1.870387,-8.555835
12.834120,1.810380,-2.599747,-7.339538
12.867462,2.125379,-2.393689,-9.320062
12.901453,0.183313,-2.669331,-9.484819
12.935095,-1.714759,-3.775791,-6.556905
12.968384,2.381268,-1.431933,-9.588073
13.001434,1.125165,-3.036405,-10.987533
13.035057,0.881696,-2.360169,-8.214350
13.068375,-0.158472,-2.872546,-8.270017
13.101539,-0.653940,-5.548611,-5.072297
13.135064,0.308713,-4.165012,-9.300309
13.168392,3.605946,-2.920581,-10.765613
13.201502,0.580615,-5.205480,-6.394542
13.235059,-0.874813,-3.130979,-13.575159
13.268388,1.127859,-2.699858,-14.359588
13.301705,2.754777,-4.863246,-8.856767
13.335049,0.335799,-4.729016,-9.352385
13.367484,3.449719,-0.918209,-8.300245
13.401363,-0.883791,-3.350506,-6.600900
13.435072,0.749562,-5.367244,-9.761060
13.468453,-0.690004,-5.864956,-5.014086
13.501851,0.005238,-4.696993,-8.627963
13.535055,3.179164,1.141626,-11.369871
13.568375,1.105263,-1.669117,-12.627021
13.601809,-0.096669,-3.857795,-12.030395
13.635105,-0.522553,-4.350869,-7.923594
13.668375,-0.032323,-3.456602,-11.008034
13.701671,2.160695,-1.578733,-9.678008
13.735057,0.091881,-2.203642,-8.094187
13.768435,1.348283,-1.447347,-10.439092
13.801581,0.682970,-1.567360,-9.695367
13.835044,2.584483,-2.789045,-7.680275
13.868404,-0.219077,-4.762985,-5.730427
13.901407,2.045769,-4.168604,-12.879619
13.935066,0.044743,-4.084355,-18.117571
13.968550,0.883043,-2.806404,-3.955811
14.001205,4.050535,-9.744150,-3.745114
14.035147,-1.372076,-0.619522,-8.694255
14.068398,-1.715956,-0.307666,-10.712639
14.101298,-0.668006,-4.017763,-6.970368
14.135066,0.084997,-4.834964,-3.521697
14.168691,2.357026,-6.967825,-0.936914
14.201442,0.950831,-4.320342,-15.860207
14.235067,-1.848090,-2.797276,-13.359374
14.268642,-1.179336,-2.904420,-9.827202
14.301109,2.225490,0.385780,-17.529474
14.335286,-0.689255,-4.066697,-10.724611
14.367933,-1.227521,-4.000555,-10.377439
14.401428,2.038137,3.315489,-10.584844
14.434388,0.925542,-3.371905,-9.215162
14.468273,0.001496,-1.256402,-11.379748
14.501113,1.124267,-1.460964,-9.529113
14.535138,0.802685,-4.314655,-8.988304
14.568409,-1.334217,-5.947409,-8.167362
14.601614,1.152400,-3.507930,-8.298300
14.635104,1.419064,-3.437298,-9.514149
14.668449,0.874513,-2.358672,-6.793042
14.701472,2.413591,-5.371134,-8.893729
14.735084,-0.657531,-6.581446,-2.699409
14.768392,2.136153,-2.858629,-5.709327
14.800898,0.241973,-3.846422,-8.797359
14.835070,0.722476,-4.071934,-7.159966
14.867798,2.017785,-0.535273,-13.830001
14.901654,1.532194,-2.534353,-13.635316
14.935072,-0.498161,-2.502180,-7.608745
14.967679,2.272777,-3.462139,-13.909761
15.001765,-0.618774,-1.620483,-9.217257
15.035075,-0.165655,-4.481208,-9.836031
15.068379,-3.078904,-11.015666,5.132454
15.101741,-8.769675,-3.584547,-24.554462
15.135030,7.052522,2.320962,-21.062843
15.168383,2.226388,-0.829172,-24.211630
15.201385,-2.675317,-3.512419,-8.149405
15.235082,24.692134,-1.409337,-9.052949
15.268369,-3.369061,-9.192566,-12.047454
15.300752,4.677539,-4.863695,-8.973190
15.335201,0.723823,-8.164519,-1.594296
15.368388,2.469408,-4.440954,-10.572573
15.401775,3.073666,9.721554,-12.804498
15.435043,2.988968,-9.351936,-2.330390
15.468385,-0.813908,-0.823485,-1.702787
15.501392,6.155712,-3.932916,-9.621144
15.535153,0.473021,-0.501902,-11.782137
15.568056,1.887147,-0.167301,-10.300822
15.601086,0.052525,-3.557911,-9.785751
15.635070,-1.466052,-5.682392,-10.804969
15.668374,1.148959,-2.914147,-11.547048
15.701217,0.424986,-4.908438,-9.075695
15.735088,0.670700,-1.661336,-11.994331
15.768372,-0.408675,1.978429,-14.084693
15.801718,-1.244431,-5.074692,-6.334685
15.835077,2.070909,-1.550002,-25.115773
15.867767,-3.247252,-5.631812,-2.549018
15.901779,2.305250,-2.290435,-11.005341
15.935103,0.834858,-2.958441,-5.671767
15.968467,1.376715,-2.628179,-8.329575
16.002148,-1.621830,-2.800717,-10.560153
16.034574,3.838940,-2.169673,-10.106885
16.067548,1.011886,-5.084568,-8.055579
16.101191,0.923746,-3.266107,-11.844389
16.134183,4.096775,0.290906,-17.581400
16.168075,-1.092543,-6.186539,-7.168945
16.201381,0.329065,-2.171918,-11.147053
16.235047,0.677134,-3.545191,-5.125121
16.268431,0.819744,-4.383940,-7.196030
16.301339,0.583607,-6.107378,-4.999571
16.335400,-0.328017,-3.785218,-10.320575
16.367834,0.812412,-3.137115,-6.531615
16.401527,-0.772307,-1.476527,-12.556689
16.435115,-1.831330,-5.312325,1.155094
16.468387,3.514215,-5.328636,-5.619991
16.501730,0.082453,-2.891251,-14.951874
16.534847,1.075185,0.910428,-12.065412
16.568187,4.367629,-0.370217,-13.080739
16.601693,0.767519,-5.220593,-5.646178
16.635063,2.700606,-3.353648,-7.032919
16.668454,3.100153,-10.622554,2.603787
16.701974,-0.353606,-5.364849,-6.438088
16.735045,-2.628927,-1.059921,-9.193314
16.768394,1.193253,-4.412073,-10.858242
16.801641,-2.912052,-5.751676,-0.677284
16.836647,1.633652,-1.974239,-16.220697
16.869188,2.279361,-4.992987,-8.609557
16.901851,0.104600,-5.583627,-8.844646
16.935011,3.770104,-0.957266,-12.445205
16.968359,-1.375069,-3.848368,-4.299990
17.001121,1.355466,0.772008,-11.570243
17.034523,0.129292,-3.026529,-8.280044
17.068357,-2.255269,-4.655691,-16.868950
17.101070,-0.936017,-3.271195,-7.961005
17.135034,-1.593099,-5.682841,-4.499314
17.168441,1.287528,-1.719996,-3.245157
17.201034,-0.894266,-0.406131,-16.388746
17.235025,0.715742,-0.991534,-15.015173
17.268374,2.733378,-10.703212,3.986787
17.301637,1.129355,-2.626982,-21.040247
17.335100,6.722560,0.219077,-15.504356
17.368359,-0.093826,-0.014366,-7.808668
17.401103,-3.989032,-7.844433,-2.970263
17.435103,2.793535,-2.838876,-22.892528
17.468439,1.010090,4.004445,-40.139027
17.501702,-0.222968,-2.345653,-12.009146
17.534389,-2.988968,-0.241075,7.256336
17.568460,19.254408,28.702415,-38.960589
17.601072,11.202720,-0.831865,-23.228027
17.634778,4.848731,-6.117254,-12.340006
17.668374,8.641731,2.651673,-6.691135
17.700870,-0.253645,5.293619,-8.433428
17.734706,-0.240476,-0.712300,-6.306852
17.768399,5.120482,-5.489053,-8.271813
17.801172,-3.709349,-9.302255,-6.270039
17.835040,1.310423,-2.825408,-13.576057
17.868418,1.288575,-1.982320,-8.399010
17.901382,4.152292,-2.594060,-8.177239
17.935047,1.274659,-6.207638,-6.799177
17.968410,-2.034695,-3.969878,-8.479368
18.001715,1.155393,-2.244644,-9.568170
18.035053,5.051796,-4.814762,-7.804179
18.068405,-7.125099,-6.553762,-4.505599
18.101164,1.673307,-0.228205,-15.744383
18.135046,2.348197,-2.684445,-7.158320
18.168408,-5.519131,-2.823164,-7.559064
18.201194,2.951109,-0.999615,-7.941102
18.235056,-1.482513,-7.325770,-7.785923
18.268409,1.644426,-2.273076,-6.673776
18.301775,-1.621980,-3.192034,-6.799027
18.335041,0.666360,-6.544784,-8.365340
18.368379,1.333468,-2.488413,-7.108040
18.401329,-0.712600,-3.804672,-7.593033
18.435066,4.213646,-6.270339,-11.474920
18.468383,-0.790564,-6.538649,-8.834022
18.501397,0.908931,-6.010259,-8.453629
18.535070,1.817713,-3.467227,-6.806809
18.568558,0.804630,-2.324254,-10.326860
18.601393,-1.151054,-3.403030,-4.441103
18.634662,3.189190,-4.126255,-5.807942
18.668389,-0.447732,-3.709349,-8.248768
18.701469,0.441447,-2.661101,-10.529776
18.734280,0.433216,-1.399760,-9.508911
18.768438,0.312155,-3.907028,-10.803473
18.801466,-0.350015,-4.030483,-10.921840
18.835054,0.125700,-1.189212,-13.272880
18.868402,-0.098166,-2.759117,-10.523790
18.901373,0.130788,-3.196373,-8.698296
18.935041,1.701740,-4.645815,-8.002306
18.968396,2.850548,-2.351639,-8.561672
19.001368,1.576937,-2.062229,-8.288872
19.035039,0.411368,-2.460878,-6.502585
19.068490,1.305635,-3.267454,-8.993691
19.101357,1.355615,-5.263391,-9.278761
19.135101,1.887446,-1.377314,-9.128968
19.168465,3.797639,0.707512,-12.183181
19.201599,1.476527,-3.125892,-11.167703
19.235007,0.381440,-2.949313,-11.666763
19.267717,2.381567,-4.879408,-9.187628
19.301119,3.276881,-5.480224,-10.357537
19.334714,-0.465539,-3.622108,-7.338939
19.368415,1.523814,-1.667471,-13.101839
19.401457,0.484394,-4.672302,-7.280429
19.434919,0.911924,-4.972037,-6.546280
19.468378,1.918273,-4.341591,-8.277500
19.501470,2.936593,-3.951621,-9.254668
19.535075,1.041066,-2.295972,-12.986165
19.568550,-2.356128,-7.538712,5.255011
19.601378,7.598270,-7.305868,-9.652718
19.635067,-0.864338,-8.536681,-7.503097
19.668387,2.870750,2.145132,-12.990205
19.701807,-0.885886,-3.036405,-7.131534
19.735057,0.609945,-2.666937,-10.388213
19.768377,1.638441,0.019154,-9.759863
19.801688,-1.267625,-9.494396,-11.493027
19.835118,-0.423340,-5.996791,-7.014214
19.868376,-0.170144,0.141413,-10.941144
19.901125,-0.020651,-1.751571,-9.059085
19.935069,-0.138719,-2.672473,-10.120951
19.968384,-0.087541,-2.360767,-11.444992
20.001336,0.619522,-2.671875,-6.559000
20.035072,2.683248,-3.752895,-8.537579
20.068470,-0.088738,-6.161698,-6.122043
20.101479,-1.000962,-4.715549,-8.367435
20.135071,1.657296,-6.001730,-12.024110
20.168282,2.450254,-5.692867,-6.825664
20.201371,-0.026636,-6.490763,10.815893
20.235071,-3.169587,-7.638674,12.883510
20.268136,-12.780854,-0.772158,-16.711226
20.301123,6.079694,-0.272799,-15.362046
20.335124,5.990656,-7.812409,-11.319441
20.367994,3.290648,-4.447388,-11.754005
20.401444,0.211146,3.651737,-11.870576
20.435070,0.546197,5.877376,-11.519813
20.467676,2.390995,-8.497774,-12.743593
20.501103,0.640023,-1.473235,-9.136151
20.535067,0.176279,-2.958441,-5.227327
20.568396,2.386206,1.404399,-15.571097
20.601276,-1.327782,-3.719824,-9.878978
20.635074,1.512142,-3.485633,-10.049272
20.668580,1.171405,-4.258838,-7.540658
20.701415,3.619863,-3.945037,-9.915491
20.735190,0.670251,-1.733314,-10.610283
20.768086,3.162704,-3.183953,-10.965237
20.801096,4.220081,-3.526935,-11.507992
20.835069,-0.709008,-3.923189,-7.046088
20.868195,1.339155,-2.404463,-11.889880
20.901277,-0.074073,-0.245414,-10.365168
20.934228,-0.985249,-3.730000,-10.644701
20.968380,3.297981,-2.829000,-12.589162
21.001111,1.392128,-3.472764,-9.737865
21.034227,1.220937,-2.785903,-9.797423
21.068380,0.838001,-1.695006,-8.853924
21.101339,-0.632391,-1.036427,-15.576035
21.135054,0.203065,-0.099961,-8.808283
21.168405,2.204690,-1.741545,-14.184505
21.201443,-0.172389,-2.185236,-9.333829
21.235433,0.175232,-4.543459,-6.838683
21.268608,1.336611,-5.337764,-7.516565
21.301590,-2.289088,-5.546067,-4.302983
21.335313,1.028795,-1.662234,-8.422055
21.367923,1.608662,-9.033196,0.218778
21.401336,1.087006,-5.085466,-7.656332
21.435103,-0.417803,-3.570032,-6.350248
21.468441,-1.886998,-3.331800,-9.036638
21.501686,2.539890,-4.002799,-4.201226
21.534308,2.226088,-4.082559,-8.392725
21.568363,1.566462,3.067680,-8.222132
21.601762,-0.017957,-4.273204,-11.531934
21.635086,2.770041,-2.579395,-9.086769
21.668357,1.064261,-4.856063,-9.078987
21.701754,-1.152251,-2.054448,-11.130742
21.735099,2.529714,-4.127452,-9.225188
21.768420,-1.254307,-3.122899,-7.521204
21.801318,1.791525,-0.036214,-14.611437
21.835009,0.521057,1.034631,-13.709389
21.868348,0.743426,-0.741930,-9.245540
21.901085,2.676364,-5.555195,-10.581851
21.935022,1.423703,-3.417995,-10.557609
21.968355,0.451922,-4.028687,-9.331285
22.001331,1.685129,-2.905019,-13.118748
22.035041,1.403052,-1.276604,-13.022378
22.068201,0.177327,-4.229359,-8.111845
22.101157,2.340865,-4.239983,-9.505170
22.135037,0.635234,-5.010944,-11.115328
22.168535,1.976185,-0.265317,-14.857450
22.201268,-0.408376,-2.443071,-9.804456
22.235042,1.178139,-3.990678,-7.266213
22.268571,3.069626,-0.643465,-14.954718
22.301154,-1.974988,-3.849116,-10.572274
22.335047,0.977767,-4.497219,-10.747506
22.368549,2.329791,-1.622279,-11.324978
22.401082,-0.993031,-2.127474,-12.323995
22.435136,1.013382,-3.318931,-6.305206
22.468369,1.381204,-4.440056,-8.051988
22.501485,-0.712600,-3.648894,-8.774613
22.534725,0.727564,-4.209306,-7.127942
22.569098,6.358030,-3.650091,-9.073301
22.601024,1.329578,-3.283017,-9.669628
22.634133,1.608662,-4.764631,-5.936934
22.668107,2.850249,-3.035956,-7.649747
22.701701,5.517784,-1.227820,-15.461708
22.735057,-1.518726,-3.377890,-8.097928
22.768390,2.362413,-1.715656,-13.366108
22.801426,-0.770661,-4.096925,-8.771621
22.835069,0.469729,-4.009683,-6.553762
22.868411,1.195198,-2.139744,-7.524047
22.901278,-1.018919,-3.301273,-11.647159
22.935072,-0.876908,-1.342597,-9.631619
22.968411,-0.400744,-0.325174,-7.975071
23.001737,2.776924,-3.898199,-7.950829
23.035374,1.406793,-6.011456,-8.152248
23.068402,1.651310,-3.729850,-8.650859
23.101799,0.511929,-5.024412,-9.676960
23.135100,1.605070,-3.612979,-10.524388
23.167624,0.798644,-3.061545,-10.401981
23.201768,1.323742,-4.022103,-8.758751
23.235120,3.050471,-1.998332,-11.701929
23.268613,-0.149643,-2.778121,-11.819548
23.301383,-0.072577,-2.459681,-10.168388
23.335082,2.942878,1.538629,-17.400482
23.368480,-2.124780,-3.065885,-11.908137
23.400936,-0.464043,-4.046495,-6.701460
23.435053,1.960772,-2.998695,-7.011071
23.468386,0.356150,-1.050344,-10.469619
23.501426,-0.011672,-0.566099,-9.104875
23.535067,1.650113,-4.742335,-8.106757
23.568193,1.084313,-2.560989,-5.999335
23.601369,-1.209414,-3.967932,-6.617660
23.635110,4.856662,-1.529949,-10.754390
23.667538,1.426845,-2.684445,-16.348193
23.701362,1.696053,-5.052096,-8.098976
23.735065,2.881375,-4.107400,-8.683182
23.768046,4.404590,-3.017400,-14.151733
23.801717,-0.974924,-3.232587,-11.365831
23.835044,2.808948,-1.684980,-11.385883
23.868377,3.409914,-0.537817,-13.956599
23.901332,-1.074287,-3.261169,-11.923400
23.935133,-0.599170,-5.969706,-5.915086
23.967858,2.174312,-1.286929,-10.516457
24.001144,2.472101,1.688421,-13.092860
24.035133,-0.797447,-5.926609,-9.383211
24.068015,3.195625,-2.574008,-7.480950
24.101535,2.116699,-1.663581,-12.693613
24.135087,1.853627,1.078477,-12.013635
24.167548,1.245628,-2.295972,-9.488111
24.201088,1.435974,-5.466756,-8.085957
24.235088,0.294797,-5.167620,-7.546494
24.268398,0.025888,-6.441530,-7.070031
24.301224,1.917525,-1.110650,-10.543842
24.335234,2.188378,-0.733550,-13.247441
24.367552,0.392214,-0.835307,-11.321686
24.401349,1.075484,-3.675380,-12.304990
24.435183,1.472636,-3.778185,-5.478279
24.468121,1.896425,-3.296185,-8.107804
24.501450,-0.052674,-5.924664,-7.287462
24.535149,0.347471,-2.099790,-8.312217
24.568134,0.712300,-0.166104,-11.023298
24.601814,2.395933,-1.439116,-8.211507
24.635067,-0.424387,-7.257384,-7.205308
24.668263,-0.208153,-5.072297,-10.372650
24.701781,0.568494,-4.736798,-6.889561
24.735181,2.711231,-1.923660,-13.727945
24.768367,0.610094,-1.282590,-12.731472
24.801291,5.503269,-0.836205,-12.718753
24.835111,2.525374,-1.894330,-11.626209
24.868363,0.212942,-6.914252,-10.001985
24.901335,0.436359,-6.684401,-3.716832
24.935030,0.309013,-0.338492,-11.249558
24.968382,-3.915408,-0.467784,-7.364977
25.001140,-2.917738,-3.527832,-5.690023
25.035067,3.267154,-2.436337,-11.866536
25.068394,-1.203878,-4.118922,-9.475840
25.101414,1.376117,-0.105049,-13.476694
25.135119,-0.177477,-4.375410,-6.474003
25.168533,1.269870,-2.939586,-4.609601
25.201365,3.447923,-4.243575,-7.439948
25.235084,2.658557,-0.856107,-15.669113
25.268408,1.501667,-0.817350,-11.149746
25.301805,2.110414,-3.141903,-11.768969
25.335433,0.277737,1.151951,-13.278118
25.368359,1.060220,-3.883983,-12.309629
25.401765,1.939971,-5.096539,-12.584673
25.435089,1.855273,-1.602377,-5.241394
25.468350,1.680041,1.313117,-15.607460
25.501676,0.069584,-5.502820,-6.035100
25.535018,3.402581,-4.875816,-9.751333
25.568423,3.309803,-3.551476,-9.270081
25.601766,0.298089,-0.219825,-13.227239
25.635086,1.529800,-5.547264,-10.505833
25.668357,1.942665,-3.175573,-11.836907
25.701726,0.163111,-1.784941,-7.264118
25.734807,-0.653790,-4.812218,-6.070715
25.767803,2.144234,-7.340435,-3.508977
25.800801,0.796400,-4.778997,-7.650795
25.834222,5.348389,-0.979563,-9.428703
25.868368,-1.803796,-4.538072,-8.254155
25.901248,1.537731,-3.347213,-15.008589
25.935109,2.489011,-4.270510,-11.232200
25.968542,-0.286417,-4.649257,-9.821216
26.001371,-1.023707,-6.242206,-9.037536
26.035054,-0.324276,-3.251891,-8.047049
26.068397,1.013532,-2.549317,-8.888342
26.101476,0.198576,-2.213668,-9.128070
26.135071,2.296271,-3.832805,-3.698276
26.168481,2.481978,-4.255546,-12.547711
26.201813,-0.917162,-4.188356,-8.530546
26.235068,-1.368335,-3.409465,-10.352598
26.268482,3.966735,-0.435910,-8.675550
26.301735,0.462995,2.144683,-11.594186
26.335069,-1.306981,-8.214500,-4.998673
26.368907,2.125528,-7.581660,-7.919105
26.401131,2.659155,-3.861836,-12.894134
26.435070,-2.025866,-2.484223,-7.163707
26.468464,4.382892,-3.064239,-12.461666
26.501527,2.621295,-4.518020,-3.989481
26.535068,0.656035,-5.196800,-8.035377
26.568470,2.571165,-3.466329,-6.971266
26.601427,-0.553080,-3.758582,-6.957649
26.635044,1.917225,-4.993435,-6.685897
26.668376,4.679335,-1.016076,-10.871560
26.701847,3.617469,-2.929261,-12.972697
26.735067,-3.420538,-5.316515,-9.484969
26.768402,0.789666,-6.706249,-11.469533
26.801416,-2.960985,-5.646328,-0.710954
26.835111,0.069883,3.409914,-47.668611
26.868939,4.171297,3.674183,-18.135827
26.901345,-6.204197,-8.274357,6.678714
26.935045,18.529089,-0.024541,-34.286491
26.968394,-20.789296,-20.045271,-4.673200
27.001382,14.841737,13.444521,-17.166590
27.035115,-5.240346,-13.525627,-19.380857
27.067573,5.623432,8.494183,-3.152678
27.101362,2.180447,-53.220364,-16.691623
27.134691,-2.330689,-3.926032,23.630118
27.167741,4.067295,-10.497602,-13.672577
27.201183,4.652250,5.718904,-16.473294
27.235042,0.088439,-0.031575,-9.349991
27.268445,2.149322,-0.117170,-15.227816
27.301122,3.189639,2.188229,-11.425838
27.339145,2.231176,0.912672,-10.590082
27.369933,1.745884,-2.871798,-9.455639
27.401131,-2.345055,-2.645987,-2.303005
27.434440,11.391719,2.856684,-55.520676
27.468295,-0.998268,-2.346252,-7.304222
27.501117,-0.944846,-6.275127,-14.779486
27.535036,-5.475435,-12.378315,-2.628628
27.567816,-0.843837,-2.786651,-9.008056
27.601369,5.332077,-5.369788,-3.924386
27.635038,-5.607421,19.369184,-16.243443
27.668421,5.256957,-4.598228,-32.783777
27.701544,-1.721941,-1.634999,-5.738508
27.735073,5.945913,-3.220167,-8.723136
27.768411,6.059791,-1.179785,-32.876406
27.801504,-4.705373,-4.489288,0.976869
27.835248,2.201697,-13.183544,-3.708302
27.868416,11.818501,-8.096581,-22.198484
27.901116,-7.964746,-11.651948,-1.483261
27.935074,2.502030,-3.455405,-9.571462
27.967949,4.213646,12.929151,-15.920363
28.001106,3.664008,-3.866325,-7.139764
28.035067,3.391059,-15.140424,-7.939456
28.068043,4.937918,10.062740,-1.747830
28.101135,2.136602,1.243234,-6.299220
28.135068,-2.950809,-2.797425,-9.976097
28.168489,3.609687,-4.172644,-10.901938
28.201232,-0.431271,-3.968830,-7.229849
28.235043,1.971546,-0.719932,-7.759136
28.268386,-0.453268,-5.288681,-6.778676
28.301778,-2.215165,-6.508271,-6.980095
28.335142,-2.177754,-7.999613,-11.993733
28.368388,1.823549,-2.009256,-10.955210
28.401340,3.311598,-3.212235,-13.076250
28.435053,-0.723673,-6.574862,-3.640364
28.468401,1.769229,-0.251251,-10.015004
28.501312,2.818824,-1.059023,-11.868930
28.535034,2.585980,-3.145345,-13.495699
28.568415,-1.118880,-3.416797,-4.238188
28.601817,6.313586,-2.886762,-1.446449
28.635040,-1.178588,0.228056,-18.557371
28.668401,3.123647,6.886269,-22.055126
28.701140,1.446598,4.040808,-18.596129
28.735042,-1.130702,-3.595920,-12.482466
28.767710,1.859613,-13.666441,-10.025778
28.801080,-2.148573,-9.353732,-10.168089
28.835044,-1.628564,-4.310914,-9.410746
28.868511,4.554533,0.623413,-9.904418
28.901122,1.467698,1.407990,-12.676404
28.935084,-0.530035,-7.068684,0.940356
28.968290,5.509554,-5.224484,-13.831647
29.001298,0.389970,-6.420730,-12.445954
29.034291,5.585872,1.229766,-12.448797
29.067691,0.797896,-0.393561,-13.496297
29.101063,0.022746,-3.409764,-9.117745
29.134293,4.599575,-13.241306,-2.408503
29.167402,-5.045362,-3.424280,-4.774059
29.201421,2.496793,1.233058,-14.656180
29.235092,-3.424728,-4.741287,-11.408180
29.268377,2.995702,-0.139467,-5.395526
29.301704,0.455214,-7.996919,-7.867777
29.335146,2.784107,-3.149834,-9.927762
29.368501,1.103168,-1.155393,-12.449395
29.401545,2.486916,1.669566,-16.290730
29.435254,2.165633,0.083800,-13.654470
29.468407,1.431634,-5.461219,-9.026163
29.501797,3.460942,-4.870279,-8.243830
29.535126,-0.591090,-1.349181,-11.311810
29.568897,0.775749,-6.773588,-6.753237
29.601891,3.273439,-5.390438,-4.751164
29.635068,1.973042,-4.035122,-12.559533
29.668400,-3.206549,0.409423,-10.309202
29.701492,4.048590,-1.607465,-9.242996
29.735169,-0.105648,-4.410875,-6.966478
29.768406,-1.024605,-2.605433,-10.886075
29.801860,2.015990,-3.917802,-11.562910
29.835044,-1.509598,-0.404784,-8.641731
29.868399,-0.144405,-3.815297,-8.221683
29.901395,1.176044,-4.954977,-3.890717
29.935042,3.273589,-6.387360,-4.872374
29.968403,-1.774765,-9.315124,5.393880
30.001438,5.804650,-1.768929,-18.942103
30.035040,-2.429004,-4.318995,-10.929921
30.068406,1.018171,-4.518020,-0.954273
30.101400,4.181623,-4.824938,-7.186603
30.135043,-1.199388,5.171810,-15.808281
30.168442,-0.512976,-7.070031,-8.264780
30.201217,0.988990,-5.277757,-10.825620
30.235082,-0.868378,1.826392,-9.497389
30.268401,-1.850634,-1.374919,-11.966198
30.301162,1.498674,-3.607143,-8.059171
30.335048,0.172389,-3.067830,-9.126873
30.368399,2.223096,-6.042283,-6.541192
30.401186,2.709884,-2.144084,-10.858840
30.435235,1.721044,-3.222561,-8.620930
30.468386,0.162662,-4.179827,-9.858926
30.501427,1.405746,-3.804373,-11.122960
30.535142,-0.336996,-2.242699,-9.391591
30.568400,1.642032,-3.883234,-10.034457
30.601387,-0.436209,-3.059001,-7.172087
30.634557,1.331224,-4.338748,-3.081896
30.667552,1.867544,1.432981,-18.627554
30.701089,1.009042,-3.615374,-12.167917
30.735139,-3.722368,-4.098571,-10.263561
30.768193,2.909358,1.669716,-15.849433
30.801375,1.854226,0.744025,-9.090360
30.835058,-0.280281,-2.524626,-16.118640
30.868432,-4.839752,-9.857280,-2.277117
30.901377,7.856255,-9.035142,-12.282693
30.935073,1.416370,-3.142352,-11.621421
30.968430,2.457586,-1.691714,-9.894691
31.001503,1.375368,-3.881738,-10.664903
31.034465,1.818611,-9.949311,-4.178330
31.068452,0.520009,0.828723,-5.905060
31.101233,1.407691,-3.623155,-9.730084
31.135075,0.489781,-3.930971,-10.674929
31.168405,0.128843,-2.260207,-9.519386
31.201141,0.269956,0.542905,-12.171059
31.235046,1.526508,-4.632497,-12.014084
31.268461,2.361515,-5.905509,-9.952303
31.301343,-0.018705,-5.962224,-5.920025
31.335100,3.573922,-0.842191,-11.520113
31.368447,1.544016,-0.325024,-14.339086
31.401272,1.164072,-3.727905,-11.307919
31.435045,3.049574,-5.411089,-12.797764
31.468405,3.138013,-3.185000,-5.001815
31.501318,-0.559665,-2.323656,-12.721446
31.535069,2.043225,-3.748556,-9.524474
31.568473,-0.425585,4.487942,-28.158313
31.601336,3.473662,-5.718456,-21.274289
31.635066,-4.947046,-2.161443,-3.391059
31.668292,7.904140,-6.720165,5.944416
31.701278,-0.413314,2.935097,-1.682286
31.735042,4.442450,-11.576977,-11.015816
31.768495,0.336397,-10.282865,-6.736776
31.801457,3.849864,-8.343642,-9.880475
31.835066,-1.267775,5.847448,-13.071461
31.868391,1.056030,-1.830433,-12.251717
31.900867,0.240327,-3.459895,-6.818481
31.935029,0.942601,-5.165076,-11.556326
31.968408,0.064047,-1.904506,-8.026249
32.001695,5.024561,-4.122813,-13.880281
32.035034,-0.086045,-5.173905,-13.929214
32.068396,1.368335,-3.367266,-6.314783
32.101403,2.503227,-2.544229,-10.073664
32.135205,1.214502,0.510582,-8.198937
32.168512,-0.437556,-0.070781,-12.902813
32.201195,0.723973,-3.279425,-7.405231
32.234791,-0.164308,-1.746632,-8.476525
32.267761,1.643229,-3.775043,-10.155519
32.301393,2.824960,-2.013147,-4.057120
32.334088,1.534588,-3.782525,-8.154343
32.367411,0.836205,-5.417224,-14.796545
32.400763,2.301209,-2.065073,-11.840199
32.435241,0.599170,-2.359121,-10.772347
32.468408,2.121488,-1.516781,-11.820895
32.501094,1.322245,-2.436786,-6.193572
32.534254,-0.180020,-5.299605,-4.537473
32.568373,3.275983,-0.198875,-14.783825
32.601537,3.990977,-0.374556,-7.851466
32.635043,1.209863,-4.825237,-11.575929
32.668406,2.292380,-3.469771,-9.010301
32.701724,0.591539,-2.447859,-7.630743
32.735089,0.704369,-6.197612,-6.842573
32.767430,-0.095771,-2.288190,-5.954293
32.801151,1.940121,-3.272691,-9.080484
32.835096,-0.994677,-3.072170,-9.105175
32.868403,2.698511,0.746419,-7.400442
32.901397,1.986360,-1.946555,-10.749601
32.935064,-2.055047,-3.647547,-9.087367
32.968451,1.374022,-3.939201,-12.945013
33.001766,1.806340,-3.257428,-7.021846
33.035067,1.057676,-4.623817,-6.344562
33.068465,1.663880,-4.821945,-11.660777
33.101236,2.646884,-0.770661,-8.856169
33.134558,0.380243,-1.350528,-10.159260
33.168442,-0.201868,-2.678908,-4.982811
33.201259,3.777886,-3.567488,-9.286392
33.235048,2.318717,-2.573260,-9.856981
33.268400,0.757343,0.977318,-16.090059
33.301678,-0.835008,-1.214801,-8.007095
33.335415,0.513275,-2.266941,-6.709840
33.368410,2.567274,-3.816045,-9.530610
33.401086,-0.260079,-0.918658,-11.565005
33.435136,0.928684,-3.575718,-9.573856
33.468091,1.815468,-3.986638,-7.440696
33.501371,4.783486,-1.990401,-17.419636
33.535066,-1.049596,-2.049061,-4.433921
33.568007,3.024733,-0.956667,-9.524774
33.601360,4.822693,1.578434,-15.634545
33.635126,1.190110,-4.097673,-9.806252
33.667534,1.057078,-0.708559,-9.085422
33.701760,0.855808,-4.453973,-10.186345
33.735143,3.881888,0.439801,-8.027446
33.768467,-0.471824,-0.875112,-9.562484
33.801486,1.049446,-2.191072,-11.184164
33.835002,3.812902,3.100003,-14.294493
33.867998,0.674590,-1.298601,-7.861492
33.901034,1.476826,-5.076487,-6.360573
33.935149,0.628051,0.891872,-11.142563
33.967383,0.480055,-3.041643,-7.204859
34.001777,2.884218,-3.258774,-11.496020
34.035064,-2.214716,-5.687180,-8.419361
34.068391,1.004703,-2.733528,-8.894029
34.101733,-0.372162,-0.856556,-8.737951
34.134928,0.523301,-2.604835,-9.981035
34.168482,0.745521,-3.940398,-1.423104
34.201460,2.167728,0.024541,-11.708363
34.235097,0.933024,-3.033412,-13.347852
34.268397,0.261875,-3.524391,-11.263325
34.301631,2.126576,-1.714609,-7.639871
34.335045,-0.023644,-3.739577,-7.464489
34.368408,1.433729,-1.489546,-5.461070
34.401864,2.890204,-2.587626,-7.961154
34.435052,1.628115,-3.497305,-13.374189
34.468464,0.318440,-3.888173,-7.711101
34.501610,3.649791,-1.843601,-11.373911
34.535041,0.794604,-2.476142,-11.551987
34.568406,2.544529,-1.900166,-10.606692
34.601299,0.900102,-3.540402,-8.371475
34.635044,0.918508,-2.140493,-13.176211
34.668404,-0.863141,-1.421159,-13.844217
34.701142,0.987943,-3.106737,-8.796761
34.735042,1.997584,-0.373210,-11.006239
34.768403,-0.683719,-1.132947,-9.212319
34.801876,-0.135128,-3.954913,-7.928233
34.835045,3.252789,-1.958377,-9.507415
34.868403,0.736243,-3.371456,-5.989160
34.901669,3.827268,-0.880649,-18.888382
34.935067,-2.818375,-4.896467,5.295415
34.967747,7.993477,-6.861728,-4.471182
35.001362,-0.112831,-3.638119,-6.951813
35.035043,3.304864,0.057613,-8.311020
35.068428,-4.455319,2.797126,3.861836
35.101061,11.005491,-4.260634,0.099961
35.135045,-8.227369,0.573282,-0.767070
35.168435,4.674397,-8.915278,-6.152570
35.200921,1.482513,-6.069219,-10.371004
35.235067,3.203107,-4.354161,-11.825684
35.268400,-1.479520,8.142073,-10.062740
35.301407,-0.001496,-14.735790,-11.159922
35.335325,1.967206,8.368931,-3.423232
35.370469,2.532857,-1.294411,-8.971244
35.401824,-1.777010,-1.646970,-8.564515
35.435093,1.384347,-3.567937,-9.127472
35.468398,-0.111334,-1.115588,-8.653852
35.501233,1.233208,-2.707041,-8.610156
35.534202,1.838513,-3.159561,-10.674929
35.567662,1.935931,-3.948479,-7.251847
35.601122,0.736543,-4.531637,-9.191818
35.634194,3.796591,-1.513489,-10.334043
35.668503,2.023023,-4.200777,-8.144617
35.700882,0.712450,-3.724912,-9.517142
35.735057,-0.316196,-2.195561,-9.588222
35.767709,-2.845461,-6.350847,-10.877097
35.801134,-1.156141,-0.205160,-7.901597
35.835092,2.949462,-2.549317,-10.019643
35.868502,1.620633,-3.626298,-9.416731
35.901586,4.077321,-1.701440,-9.892596
35.935050,0.731604,-2.601543,-4.809973
35.968416,-0.365578,-4.013424,-7.619819
36.001736,3.085638,-2.552759,-12.646325
36.035113,0.047886,-4.536426,-8.574541
36.068403,1.934883,-4.606758,-8.973040
36.101936,2.937790,-2.908610,-7.515667
36.135072,2.389050,-0.546346,-11.233995
36.168381,1.978729,-0.236436,-9.814782
36.200774,2.166980,-1.680640,-8.409634
36.235071,0.521506,-5.767090,-10.266703
36.268378,-1.089401,-4.500212,-8.881608
36.301139,0.921651,-1.130852,-12.212062
36.335228,1.740347,0.504147,-10.399586
36.367929,2.633267,-1.906002,-10.786264
36.401209,1.785689,-4.591046,-10.013956
36.435041,1.107059,-4.634143,-9.005064
36.468438,1.706379,-5.667577,-6.205543
36.501369,2.051306,-2.182093,-8.894477
36.535241,1.670913,-1.921415,-12.700496
36.568064,-0.230899,-1.462909,-10.845672
36.601361,5.083221,-2.357625,-9.744599
36.635065,2.512655,-4.094530,-5.889647
36.668040,1.012484,-4.834515,-6.210482
36.701712,0.471226,-1.937128,-6.753237
36.734500,-0.136774,-3.116165,-8.113192
36.768007,0.714844,-4.215292,-8.363544
36.801386,-0.689854,-2.209777,-7.214286
36.835143,-0.334452,-2.240753,-9.193614
36.868375,1.775962,-1.819658,-9.861021
36.901348,1.819209,-3.413655,-7.552480
36.935043,-0.469729,-3.526336,-5.853284
36.968489,1.789430,-3.235729,-8.435523
37.001428,1.541322,-1.811877,-7.824081
37.035281,1.988605,-2.163538,-9.466413
37.067840,0.465838,-3.235430,-10.971372
37.101398,1.773119,-4.524006,-10.341076
37.134662,2.283551,-3.330453,-7.915962
37.167636,0.134379,-4.207960,-8.580377
37.201039,-0.507888,-3.409315,-10.199514
37.234593,0.896511,-1.832079,-9.196607
37.268409,-0.383236,-2.998695,-12.182432
37.301443,1.165868,-1.165868,-7.864036
37.335062,2.392342,-2.040382,-7.099061
37.368376,1.068750,-4.166957,-7.942599
37.402090,2.700157,-1.847342,-10.297230
37.435059,1.496878,-3.524091,-8.038221
37.468564,1.536683,-3.799135,-9.703298
37.501637,0.640921,-2.482576,-9.727839
37.535073,1.693659,-2.950061,-10.765763
37.568368,2.437235,-2.834836,-9.902323
37.601686,1.387340,-2.519089,-8.123517
37.635072,2.148873,-1.085360,-9.698509
37.669438,3.736734,-2.329492,-9.901874
37.701708,3.131428,-3.898648,-6.982490
37.735174,3.333446,-3.823377,-6.085081
37.767882,1.864850,-4.382144,-7.458803
37.801372,0.880499,-4.134485,-10.041191
37.835070,-0.487537,-4.128050,-9.360915
37.868130,1.412480,-1.868442,-10.536510
37.901772,0.575527,-0.594531,-14.055513
37.935144,1.301295,-2.883919,-6.754883
37.968375,0.133332,-3.760677,-16.278309
38.001828,-1.265381,-2.390845,-5.137392
38.034616,1.552097,-1.729274,-9.333530
38.068379,-0.780687,-5.218050,-8.041962
38.101694,-1.470092,-3.369810,-11.028236
38.135059,3.793000,-0.864936,-10.928125
38.168373,0.557270,-2.805057,-5.353626
38.201354,1.955384,-2.336824,-9.678158
38.235158,2.819423,-2.482128,-10.355741
38.268384,1.045256,-2.991961,-11.808175
38.301375,0.263222,-4.701781,-4.705822
38.334828,2.852344,-3.509277,-8.747378
38.367426,-0.331609,-4.440056,-7.406877
38.401190,2.206186,-1.270618,-11.035419
38.435067,2.544529,-3.371156,-12.546663
38.468387,0.351362,-3.361579,-6.292187
38.501198,1.588011,-5.428448,-10.947429
38.535134,-3.152378,-3.698276,-8.828335
38.569275,2.022275,-4.534032,-7.746417
38.601364,4.936272,0.156676,-15.503009
38.635133,0.999166,-3.144747,-12.413182
38.668436,0.146052,-4.619627,-5.367693
38.701675,-0.093078,-2.073153,-10.703361
38.734730,0.922100,-2.161143,-8.235600
38.771640,-0.346423,-4.545255,-7.914466
38.801088,2.439330,-5.554297,-7.646755
38.834317,-0.355552,-7.238229,-5.549209
38.868377,4.387830,-0.473021,-11.110839
38.901183,1.945358,-1.086557,-9.721105
38.935105,2.760164,-0.162363,-14.341181
38.968386,0.020950,-1.421758,-9.415385
39.001402,1.053337,-5.128264,-11.563659
39.035045,1.631258,-2.411496,-10.241863
39.068509,1.442857,-4.312410,-6.488518
39.101725,1.566313,-2.747893,-7.251398
39.135050,3.462738,-3.853605,-9.072553
39.168378,-0.476613,-2.076745,-9.669478
39.200993,1.575890,-2.317371,-10.268798
39.235042,0.744174,-3.747209,-7.972677
39.268407,0.841891,-3.382679,-12.929749
39.301839,-0.609196,-3.566889,-8.344091
39.335074,0.288961,-4.801444,-5.647525
39.368403,5.226130,-5.032343,-5.864507
39.401735,-1.544315,-4.718242,-9.043223
39.436318,3.644105,-2.034546,-11.993134
39.468344,0.435162,-3.015754,-12.521374
39.501710,-1.245029,-3.309803,-8.541919
39.535171,3.441788,-1.741545,-8.852577
39.568387,1.192954,-3.647397,-10.233183
39.601260,0.083501,-2.918636,-5.504915
39.635075,0.205909,-2.721407,-8.712362
39.668387,-0.286417,-4.200627,-8.333616
39.701410,0.844286,-3.356491,-9.168174
39.735138,2.245692,-2.736521,-9.050405
39.768228,1.280644,-2.203941,-9.656010
39.801364,1.245478,-2.493949,-10.124842
39.835064,0.558168,-3.175723,-10.264309
39.868383,-1.473983,-3.927678,-8.712212
39.901190,-0.126149,-5.157893,-8.233505
39.935566,-0.392813,-3.383726,-8.135937
39.968226,1.742293,-1.949997,-9.052051
40.001122,2.346401,-4.160523,-3.592478
40.035130,-0.194386,-4.446491,-9.773181
40.068234,2.013895,-5.455234,-11.379748
40.101403,-0.315896,-7.383832,-3.754691
40.135132,2.262302,-3.703663,-7.564152
40.169049,4.183418,-1.803497,-11.600022
40.201361,-0.367972,-1.918273,-12.504314
40.235234,-0.890675,-3.708900,-13.303557
40.273558,4.149449,-3.627944,-9.468358
40.301200,2.847855,-3.144447,-12.766638
40.334866,-0.795352,-3.440441,-8.118878
40.367785,-0.522703,-0.863290,-6.705800
40.401137,-1.191008,-3.051070,-12.296909
40.435276,2.636260,-4.821945,-5.873785
40.468395,3.590533,-0.743127,-9.840221
40.501641,0.716490,0.790414,-10.748703
40.535065,1.450040,-1.070995,-8.201780
40.568186,4.667214,-3.675081,-11.092433
40.601404,-0.281179,-7.668303,-7.615629
40.634780,3.060498,-5.447452,-4.522060
40.667745,0.561760,-1.051990,-5.034138
40.701452,0.910577,-3.272841,-10.631234
40.735053,0.402988,-1.995938,-7.974772
40.768396,0.788020,-5.078283,-11.245967
40.801121,4.143613,-4.718990,-7.306018
40.835065,-0.250353,-2.728440,-4.596433
40.868387,-0.577622,-4.073281,-12.701394
40.901797,-1.237398,-4.927293,-9.835283
40.935052,1.608512,-1.876223,-10.755288
40.968400,-1.289922,-0.534974,-9.931802
41.001863,0.376202,-1.132647,-5.980929
41.034631,3.913163,-1.781350,-9.623388
41.068399,4.068044,-5.752873,-7.925090
41.101824,2.692974,-2.900978,-5.973597
41.134568,1.709671,-2.445016,-7.088437
41.168400,2.881525,-2.686689,-6.470112
41.201891,2.679656,-2.264397,-5.866602
41.234534,-0.074373,-4.299990,-9.181493
41.268398,-1.007247,-5.120183,-4.777950
41.301294,1.501068,-1.889990,-4.932531
41.335636,4.550492,-2.778570,-7.923893
41.368376,2.824810,-4.336204,-10.073664
41.401219,-0.980311,-4.473127,-6.240709
41.435077,2.620098,-3.433707,-13.036744
41.468804,2.632070,-0.568793,-9.197205
41.501736,4.844690,-2.175659,-10.416197
41.535130,2.215613,-4.611696,-8.941316
41.567765,-1.327632,-5.970155,-7.260077
41.601400,5.255760,-2.967569,-13.782265
41.635019,1.734362,-5.731774,-4.847085
41.667696,1.040318,-2.792188,-9.479731
41.701407,-0.226859,-0.678930,-13.600299
41.735134,-2.759566,0.686861,-11.064151
41.767678,-0.801338,-2.781413,-8.841953
41.800878,1.137436,-3.503441,-7.602610
41.835209,0.378746,-2.841121,-7.628947
41.867576,0.209350,-1.035529,-5.752873
41.901270,0.574629,-3.295437,-5.103124
41.935497,2.644341,-2.138996,-6.965580
41.968081,1.773419,-4.148551,-4.544507
42.001167,1.006349,-3.960600,-12.940673
42.035186,2.824960,-0.024841,-13.062782
42.068556,2.197507,-3.977360,-9.456087
42.101215,1.085510,-3.603103,-7.940504
42.135132,1.111548,-4.707917,-6.392148
42.167720,1.903309,-1.746932,-9.511156
42.201810,0.993629,-2.407156,-9.323504
42.235056,-0.278934,-2.132113,-6.954207
42.268398,1.140429,-3.169737,-8.838511
42.301406,2.584932,-1.547907,-8.818608
42.334436,-0.253196,-2.149322,-11.963056
42.368379,1.735858,-3.386570,-12.158789
42.401166,0.752704,-4.686368,-6.779574
42.435036,1.007396,-2.980738,-10.075759
42.468398,1.904805,-1.171704,-5.770681
42.501384,1.751571,-2.736820,-7.149042
42.535060,2.842767,-1.378960,-9.705393
42.568464,2.353884,-3.277181,-10.072167
42.601202,2.006862,-2.657808,-10.813648
42.635100,4.102461,1.694108,-12.955787
42.668469,-0.814507,-1.699495,-7.731602
42.701488,2.095749,-0.317842,-9.853689
42.735045,0.900701,-1.798259,-8.675251
42.768374,1.230215,-2.857731,-10.481441
42.801170,0.820193,-3.311000,-10.240216
42.835063,0.573731,-2.349843,-8.446446
42.867605,1.691714,-1.112595,-9.478384
42.901241,0.972978,-1.267027,-10.105687
42.935198,2.125678,-2.189875,-10.346164
42.968432,1.972444,-2.676065,-10.198765
43.001452,0.881996,-1.519774,-10.045232
43.035126,1.560327,-1.485356,-10.999804
43.067514,0.511180,-0.786523,-11.280983
43.101801,2.517294,-2.412095,-7.011520
43.135857,1.903458,-1.194151,-10.028472
43.168373,0.809269,-2.197207,-9.329490
43.201294,1.703685,-1.017273,-5.474986
43.234673,4.135981,-1.708324,-11.157977
43.268415,2.086472,-2.143037,-10.438942
43.301397,-0.205609,-1.292915,-8.620631
43.335061,0.593933,0.890076,-13.206140
43.368467,-1.826991,-1.357710,-10.742119
43.401106,1.930843,-0.092180,-8.613149
43.435063,0.664864,-2.072854,-10.022037
43.468694,-0.365578,-1.917974,-8.590553
43.504702,3.818888,-0.923896,-8.574242
43.535101,2.131215,-5.778462,-9.636258
43.568293,1.302492,-3.460344,-9.194063
43.601711,3.785817,-1.639787,-10.232435
43.634375,1.107657,-2.447859,-9.018980
43.668466,0.888729,-1.369682,-10.658020
43.701267,1.410385,-1.366988,-10.716530
43.735075,0.648403,-1.688272,-9.587175
43.768516,0.177776,-1.873081,-8.716103
43.801314,1.407242,-3.350356,-9.066567
43.835055,-0.786523,-3.094167,-8.810677
43.868456,-0.021998,-1.855722,-9.421819
43.900846,0.766022,-3.326263,-9.257960
43.935067,1.724485,-2.453246,-9.580291
43.968666,1.588909,-1.877420,-11.273351
44.001163,1.198939,-1.623177,-9.902472
44.035128,2.080187,-0.411668,-10.837591
44.068466,1.164970,-1.924109,-10.036702
44.101434,1.479370,-1.583821,-10.054510
44.135131,1.261939,-1.627068,-8.664925
44.168516,1.501368,-1.098529,-9.808497
44.201192,0.510582,-1.294860,-9.107120
44.235066,1.812326,-1.553593,-9.513999
44.268465,1.286630,-3.072170,-9.337271
44.301273,1.050344,-3.963144,-8.580676
44.335132,1.359207,-3.243960,-9.143633
44.367802,1.379109,-2.321112,-9.450251
44.401390,2.649279,-1.051840,-10.382078
44.435133,3.612381,-1.889841,-9.148721
44.467532,2.838278,-2.509961,-10.170483
44.501162,0.946641,-1.449442,-9.438430
44.535132,1.772371,-1.451387,-9.729485
44.568030,0.564453,-1.963465,-9.925068
44.601446,-0.351062,-2.226537,-9.714670
44.635136,1.018620,-2.402817,-8.625419
44.673372,0.718585,-2.265894,-9.183139
44.701362,0.516119,-2.254221,-8.859760
44.734328,-0.311257,-2.622193,-9.638203
44.768396,1.199987,-1.831630,-10.322071
44.801834,0.826328,-2.991662,-8.725680
44.835143,1.283488,-2.016439,-11.018509
44.868902,0.979413,-2.144832,-9.731131
44.901164,-0.753752,-2.869852,-8.784789
44.935060,1.423703,-2.334131,-11.578324
44.968532,3.940847,0.050879,-12.598589
45.001302,1.694407,-2.574008,-11.330814
45.035063,3.150134,-1.715058,-9.377974
45.068464,3.408567,-1.760250,-7.756443
45.101382,1.115139,-3.371456,-8.081617
45.135217,1.883705,-3.199516,-8.875473
45.167847,0.634037,-3.151480,-7.691498
45.201427,1.322395,-2.353435,-7.615330
45.234587,1.185771,-2.119393,-11.907987
45.267569,1.276454,0.009876,-11.231601
45.301159,4.582815,-0.227308,-10.026377
45.335177,2.787399,-1.678395,-9.954997
45.367556,-0.301531,-3.734489,-10.544441
45.401126,1.463508,-3.577664,-9.798620
45.435159,2.894992,-1.851831,-9.212618
45.467400,-0.034119,-1.826243,-9.129866
45.501728,1.023707,-1.399760,-9.408501
45.535427,1.083415,-2.681751,-9.295221
45.567994,1.995040,-1.491192,-11.267216
45.601339,2.346401,-1.078028,-7.585401
45.635364,3.785667,-3.120205,-9.000574
45.668143,2.471802,-3.377591,-9.746844
45.701244,1.101073,-4.281434,-8.680189
45.735123,2.332934,-4.267069,-8.993691
45.773808,1.935183,-2.273675,-7.793554
45.801321,1.430587,-1.723438,-9.863266
45.835062,1.537581,-1.145966,-9.368846
45.868444,2.478237,-1.672709,-9.919981
45.901422,2.408803,-2.375282,-13.247740
45.935335,-0.578969,-3.976462,-8.066952
45.968418,-0.622964,-5.004060,-5.143378
46.001546,2.771687,-3.149236,-15.098973
46.035465,-1.717901,-0.956967,-9.010301
46.068417,2.374684,-2.408653,-9.701801
46.101131,4.879408,-3.729252,-8.095983
46.135043,-0.232844,-4.473426,-7.856105
46.168385,-0.009428,-4.280985,-11.655988
46.201453,2.583137,-2.098593,-10.950871
46.235132,1.840159,-2.493650,-8.071890
46.267797,0.462546,-2.955747,-6.892704
46.301457,1.551498,-0.541558,-18.618875
46.335131,0.578669,-3.329406,-12.861362
46.368451,0.967891,-4.872823,-7.694940
46.401400,4.400849,0.574330,-16.658702
46.435217,1.243234,-1.650262,-8.884900
46.468389,2.892299,-3.703962,-8.483259
46.501937,4.209606,-5.174204,-8.970945
46.534779,0.228654,-6.289493,-9.952453
46.568395,2.053999,-3.391358,-10.391805
46.601874,1.390782,-4.261233,-8.077726
46.634723,3.464085,-8.348430,-10.181706
46.668394,0.631942,-1.875774,-10.587089
46.702071,-0.353307,-3.935161,-9.791737
46.734545,3.039248,-1.017722,-9.425560
46.768487,1.904955,-4.635190,-8.280792
46.801600,2.495446,-4.343387,-8.520819
46.834986,2.976997,-3.545790,-8.814119
46.867684,1.808734,-7.837549,-10.471564
46.901133,2.856385,-1.395271,-10.627792
46.935053,-0.959810,-1.806340,-8.872630
46.968396,4.052630,-5.474388,-12.155945
47.001748,1.966159,-2.813736,-9.127621
47.035136,1.699495,-3.121253,-9.152612
47.067956,3.401983,-3.763221,-9.385157
47.101798,2.405510,-3.758732,-8.521418
47.135134,1.664179,-1.865150,-14.541404
47.167877,-2.742806,-2.522382,-9.380069
47.201656,-0.195733,-2.578647,-2.066569
47.235131,6.637712,0.142310,-18.436909
47.267749,3.935759,2.162041,-7.011969
47.301151,2.782461,-9.082429,-13.374189
47.335133,0.884390,-3.560754,-11.009232
47.367545,-3.938453,-1.681388,-10.061692
47.401806,0.378148,4.513381,-10.745261
47.435081,-0.684317,-6.824616,3.169288
47.468464,0.464791,-2.910555,-9.318566
47.501409,0.360041,-2.537346,-10.009467
47.534966,-2.733977,-1.814121,-9.533602
47.568742,3.798088,-1.813224,-9.952603
47.601098,1.230215,-3.315339,-8.410083
47.635082,-1.138484,-3.377591,-9.231174
47.668762,-0.322481,-2.399824,-9.415833
47.701105,-0.212493,-2.054897,-10.914807
47.735066,1.428192,-2.157851,-10.467374
47.768306,2.322758,-3.753644,-9.679953
47.801106,1.765338,-3.535764,-10.097457
47.835068,1.479819,-1.862456,-9.584481
47.867499,3.460493,-0.834559,-7.588843
47.901363,3.079951,-2.593911,-8.535933
47.935067,3.091623,-2.132861,-8.265678
47.968537,2.374385,-1.419812,-11.287567
48.001463,1.362050,1.318205,-13.237265
48.035113,-2.128222,-1.827440,-9.531507
48.067700,4.822693,-1.132199,-9.315124
48.101454,5.008998,-2.985227,-8.744086
48.135129,1.969750,-3.360532,-8.107804
48.167942,-2.625336,-2.495446,-9.705692
48.201193,-0.118816,-2.069562,-10.403627
48.235135,3.807066,-0.134080,-9.223243
48.267886,4.419854,-0.642567,-9.005064
48.301840,4.652998,-2.210825,-9.322905
48.335112,4.111889,-3.669844,-9.485268
48.367832,1.662832,-2.976847,-9.198851
48.401882,0.854461,-2.628029,-9.076892
48.434931,0.749711,-3.297382,-9.133607
48.467940,-2.431997,-3.997113,-8.848986
48.502253,-5.089806,0.036064,-11.623666
48.535010,-7.888129,-4.916818,-9.954548
48.568407,2.733677,-1.205374,-7.058508
48.601305,3.532771,-0.139168,-8.219737
48.634902,3.981700,-2.800867,-10.767558
48.668397,5.902217,-0.867331,-8.330024
48.701212,6.635318,-1.566313,-9.035291
48.735151,6.305056,-2.977745,-9.339067
48.768736,3.497904,-2.007759,-9.202293
48.801483,4.048440,-1.875026,-9.426458
48.835224,2.255568,-2.220701,-9.366302
48.867539,0.190196,-2.040382,-9.455938
48.901364,-1.922762,-2.430800,-9.393686
48.934619,-1.095087,-3.383876,-9.290433
48.968360,1.979477,-3.917353,-9.108766
49.001350,3.490272,-3.281221,-8.821152
49.034702,3.068878,-3.074863,-8.776409
49.068434,1.266877,-4.746525,-9.115500
49.101359,1.183077,-3.524091,-8.844048
49.135063,0.548441,-3.338085,-9.047712
49.168465,1.692162,-3.928576,-8.879064
49.201181,3.299178,-3.770404,-9.013144
49.235272,3.768458,-3.259223,-8.656545
49.268009,2.988370,-3.083991,-8.885349
49.301187,2.314378,-3.757385,-8.834321
49.335208,2.156056,-3.933664,-8.799753
49.367447,1.499273,-4.113984,-8.617788
49.401127,2.323506,-4.318247,-8.500468
49.435132,2.801316,-4.164862,-8.780898
49.468066,2.534353,-3.803774,-8.683032
49.501402,2.579695,-3.536212,-8.960919
49.535131,1.474133,-3.384774,-8.918121
49.567896,1.465603,-3.492217,-9.035740
49.601895,1.605070,-3.225703,-8.918121
49.635050,1.461263,-3.383876,-8.899865
49.668397,1.577985,-3.588139,-8.901511
49.701735,1.754863,-3.584846,-8.951641
49.735104,1.879216,-3.446277,-8.788979
49.768397,2.055496,-3.575419,-8.961966
49.801422,2.302556,-3.370857,-8.908394
49.835096,2.551712,-3.211637,-8.807236
49.868463,2.301808,-3.154024,-9.310635
49.901287,1.844798,-3.330154,-8.796461
49.935148,2.201098,-3.428769,-9.030952
49.968451,1.435674,-3.396147,-9.091408
50.001484,2.388002,-3.453161,-8.717600
50.035209,2.048013,-3.782076,-8.253257
50.067821,2.631771,-4.132540,-8.532192
50.101188,2.470605,-4.235644,-8.658341
50.134237,1.969451,-4.111440,-8.690065
50.172126,1.643080,-3.886976,-8.571997
50.201166,1.954487,-3.826520,-8.670462
50.234674,2.207383,-3.729102,-8.800801
50.267707,2.450254,-3.638718,-8.862604
50.302019,2.784406,-3.639765,-8.748576
50.335078,3.138611,-3.596668,-8.697996
50.368465,3.170036,-3.676129,-8.820105
50.401240,3.141005,-3.683611,-8.571847
50.435082,2.650177,-3.694834,-8.695752
50.468469,2.471054,-3.653682,-8.883853
50.501251,2.377826,-3.561801,-8.755758
50.535131,2.199751,-3.416348,-8.850333
50.567747,2.576702,-3.402881,-8.855570
50.601204,2.682200,-3.428918,-8.936527
50.635131,2.900978,-3.566590,-8.765785
50.667994,2.912052,-3.622556,-8.810977
50.701017,2.464021,-3.715634,-8.741991
50.735134,2.271879,-3.787912,-8.763690
50.769073,1.700692,-3.747209,-8.792571
50.802026,1.521121,-3.564645,-8.825193
50.835079,1.550900,-3.479049,-8.890437
50.868545,1.396169,-3.479797,-9.010600
50.901867,2.154559,-3.656675,-8.784939
50.935099,2.625336,-3.934412,-8.691711
50.968734,2.936444,-3.982448,-8.725231
51.001179,2.746397,-3.658471,-8.822499
51.035064,2.465816,-3.486830,-8.910489
51.068454,2.603189,-3.451365,-8.933534
51.101092,2.321860,-3.351254,-8.859760
51.135145,2.267240,-3.496258,-8.831179
51.168243,2.213070,-3.629141,-8.916325
51.200858,1.628564,-3.532022,-8.917373
51.235127,1.833126,-3.469322,-8.832525
51.268836,1.767433,-3.377292,-8.945506
51.301295,1.539377,-3.465282,-9.007608
51.335130,1.805442,-3.487130,-8.954933
51.368448,1.368335,-3.660865,-8.843300
51.401461,1.579781,-3.896253,-8.816065
51.435129,1.723587,-4.112338,-8.639037
51.468621,1.898071,-4.264974,-8.650859
51.501904,2.405211,-4.174889,-8.523213
51.536757,2.548719,-3.942194,-8.796761
51.568560,2.991063,-3.655927,-8.830131
51.601725,2.692226,-3.318033,-8.897470
51.636694,2.058788,-2.186732,-9.718412
51.668187,2.586728,-3.219269,-9.027510
51.701300,1.639488,-3.576766,-9.024816
51.735039,1.465753,-2.698062,-9.100685
51.768465,2.564730,-3.412009,-8.824594
51.801901,1.610906,-3.772349,-8.864100
51.835221,2.164735,-3.711145,-8.838062
51.868661,2.130317,-3.531574,-8.977529
51.901438,2.030206,-3.597117,-8.804841
51.935137,2.166830,-3.555516,-8.773716
51.968447,2.117448,-3.641262,-8.878316
52.002034,2.207084,-3.622257,-8.833573
52.035054,2.266492,-3.577364,-8.880710
52.068434,2.208730,-3.528431,-8.878615
52.101838,2.311684,-3.398541,-8.895675
52.135447,1.805592,-3.744815,-8.841504
52.167751,2.200051,-3.543246,-8.861107
52.201879,1.927700,-3.742121,-8.711913
52.235070,2.270832,-3.872759,-8.672856
52.268463,2.500833,-3.972871,-8.747977
52.301358,2.571464,-4.029136,-8.698595
52.334469,2.697613,-4.107250,-8.659388
52.368380,2.469109,-3.968082,-8.635595
52.401341,2.456090,-3.909572,-8.696051
52.435132,2.252126,-3.761425,-8.781497
52.468493,1.839261,-3.687501,-8.844497
52.501740,1.627666,-3.574371,-8.890437
52.535129,1.739599,-3.527832,-8.814718
52.568500,2.302257,-3.550578,-8.863352
52.601496,2.453546,-3.344819,-8.902259
52.635184,2.282504,-3.400636,-8.880261
52.667465,2.519239,-3.508229,-8.862005
52.701336,2.499785,-3.390760,-8.889839
52.735133,2.201996,-3.329406,-8.916325
52.768662,2.253772,-3.381033,-8.867991
52.801552,2.018833,-3.456902,-8.888641
52.834754,1.993244,-3.579310,-8.869936
52.868737,2.060733,-3.689896,-8.842402
52.901798,1.941617,-3.701269,-8.848986
52.935236,2.006113,-3.659518,-8.864998
52.968462,2.066569,-3.681965,-8.781347
53.001653,2.347150,-3.794795,-8.724932
53.035124,2.580293,-3.787164,-8.714457
53.068508,2.658856,-3.737482,-8.787632
53.102029,2.668134,-3.704561,-8.786136
53.134683,2.455491,-3.713390,-8.778205
53.168533,2.234618,-3.565842,-8.882207
53.203466,1.855423,-3.442686,-8.871881
53.235073,1.931442,-3.459446,-8.892981
53.268461,2.039334,-3.453909,-8.945655
53.301098,1.927700,-3.501046,-8.934881
53.334682,1.943263,-3.510474,-8.863202
53.367653,2.061930,-3.625549,-8.838212
53.400801,2.244644,-3.605647,-8.880261
53.435044,2.230578,-3.579459,-8.858862
53.468048,2.120441,-3.614326,-8.808133
53.501928,2.297319,-3.688250,-8.822649
53.535191,2.108170,-3.588288,-8.852577
53.568474,2.014942,-3.554619,-8.910190
53.601797,1.810530,-3.491619,-8.939670
53.635673,1.669716,-3.523194,-8.912734
53.668898,1.810380,-3.587241,-8.897171
53.701833,1.863803,-3.585295,-8.907496
53.735246,1.855124,-3.655179,-8.843898
53.768560,2.122236,-3.671789,-8.838361
53.801677,2.117897,-3.661613,-8.889839
53.835130,2.005365,-3.604749,-8.848986
53.868543,2.095151,-3.595022,-8.892083
53.902773,1.929496,-3.559557,-8.943111
53.935129,1.784193,-3.471567,-8.927399
53.968479,1.664030,-3.721919,-8.877418
54.002339,1.964064,-3.639616,-8.893131
54.035380,1.964662,-3.674632,-8.798407
54.068464,2.278613,-3.677326,-8.811875
54.101796,2.228034,-3.668048,-8.881608
54.135116,1.958826,-3.659668,-8.891185
54.169439,1.897921,-3.598015,-8.909891
54.201882,1.764739,-3.587540,-8.891934
54.235082,1.888045,-3.630936,-8.891485
54.267825,1.824148,-3.562849,-8.900762
54.301873,1.811877,-3.633780,-8.879513
54.335320,1.909743,-3.605647,-8.851829
54.368726,1.930544,-3.617169,-8.869337
54.401804,1.966159,-3.594424,-8.908694
54.435129,2.030206,-3.584248,-8.932487
54.468463,2.084227,-3.661613,-8.825642
54.501149,2.248834,-3.709200,-8.807385
54.535085,2.226986,-3.617618,-8.880561
54.568467,1.976035,-3.625100,-8.853326
54.601189,2.106973,-3.606096,-8.887893
54.635192,1.961370,-3.576167,-8.907197
54.669060,2.043973,-3.621808,-8.862903
54.701868,1.966907,-3.610735,-8.874126
54.735217,1.943413,-3.570630,-8.885050
54.768464,1.980225,-3.599063,-8.887893
54.801233,2.055496,-3.635875,-8.879214
54.835063,2.015840,-3.630188,-8.872330
54.868559,1.939223,-3.640065,-8.865896
54.901226,2.081833,-3.647248,-8.854822
54.934844,2.056842,-3.596219,-8.820554
54.967848,2.211423,-3.649791,-8.804093
55.000809,2.245093,-3.690045,-8.854224
55.035131,2.102783,-3.585894,-8.880261
55.068460,2.076296,-3.569134,-8.902109
55.101799,1.950147,-3.538457,-8.895375
55.135136,1.977083,-3.689896,-8.848238
55.168497,1.915729,-3.688998,-8.888492
55.202594,1.825195,-3.652036,-8.827737
55.235869,1.804993,-3.686903,-8.839858
55.268457,1.574094,-3.642010,-8.839409
55.301335,1.784642,-3.687950,-8.868140
55.335313,1.903309,-3.567338,-8.877867
55.368866,1.979178,-3.573324,-8.940567
55.401713,2.011650,-3.654281,-8.836566
55.435136,1.942216,-3.494612,-8.916774
55.468872,1.716255,-3.443135,-8.911836
55.501883,1.936679,-3.603253,-8.884451
55.535994,1.882359,-3.663409,-8.842252
55.568399,2.046816,-3.680917,-8.844048
55.601913,2.207383,-3.760228,-8.773716
55.634737,2.258411,-3.801978,-8.758302
55.668398,2.320663,-3.818439,-8.730020
55.701682,2.483474,-3.736584,-8.808582
55.735216,2.388900,-3.737931,-8.798856
55.768466,2.174312,-3.667150,-8.805739
55.802007,2.450104,-3.742570,-8.801400
55.835132,2.354332,-3.710995,-8.746780
55.868503,2.246440,-3.639466,-8.819656
55.902288,2.363012,-3.637820,-8.680937
55.935137,2.789793,-3.827118,-8.735557
55.968466,3.209841,-3.669544,-8.738550
56.001924,2.460729,-3.523493,-8.790326
56.035128,2.150968,-3.564495,-8.834770
56.068674,2.126277,-3.565094,-8.800801
56.101973,2.083179,-3.611034,-8.867093
56.135131,2.063576,-3.580507,-8.774314
56.168506,1.963764,-3.478151,-8.821751
56.201772,2.111911,-3.577514,-8.903905
56.235130,2.255418,-3.532771,-8.847639
56.268466,2.084377,-3.481593,-8.879364
56.303112,2.263050,-3.526785,-8.816364
56.335133,2.453546,-3.644255,-8.752766
56.368237,2.657060,-3.725062,-8.790326
56.402026,2.569968,-3.648594,-8.770872
56.435142,2.360617,-3.642908,-8.766982
56.468465,2.562635,-3.673136,-8.828934
56.501799,2.319915,-3.565393,-8.825492
56.535068,2.047116,-3.490122,-8.865596
56.568443,1.953589,-3.489374,-8.878915
56.601286,1.870986,-3.562699,-8.797958
56.635181,2.077942,-3.550728,-8.831627
56.668502,2.023622,-3.606245,-8.876221
56.701092,2.234169,-3.543844,-8.841654
56.734891,2.313929,-3.577514,-8.855870
56.767979,2.451002,-3.658171,-8.769526
56.801782,2.542733,-3.738081,-8.719994
56.835133,2.345504,-3.749603,-8.761744
56.869063,2.426460,-3.744366,-8.745433
56.901275,2.334280,-3.748855,-8.797359
56.935130,2.283102,-3.645601,-8.816214
56.968590,2.187630,-3.668198,-8.782844
57.001800,2.136752,-3.684060,-8.746630
57.035221,2.160695,-3.679720,-8.745134
57.068705,2.130467,-3.617319,-8.848537
57.101816,2.111013,-3.602654,-8.869188
57.135044,2.154559,-3.597716,-8.776708
57.168424,2.396681,-3.651587,-8.778355
57.201686,2.387254,-3.702765,-8.755758
57.235012,2.497391,-3.628393,-8.778803
57.268437,2.515947,-3.597416,-8.816663
57.301727,2.441425,-3.623903,-8.774763
57.335095,2.478985,-3.652784,-8.775362
57.368425,2.420774,-3.620461,-8.768777
57.401764,2.490059,-3.653832,-8.772668
57.435090,2.460729,-3.622856,-8.768478
57.468354,2.510410,-3.647098,-8.771022
57.501321,2.466116,-3.654580,-8.765485
57.535020,2.503975,-3.657872,-8.749025
57.568353,2.503377,-3.650091,-8.754561
57.601102,2.509213,-3.617768,-8.770872
57.635208,2.502928,-3.633480,-8.775062
57.668377,2.367950,-3.671939,-8.736903
57.701342,2.563683,-3.665055,-8.748127
57.736158,2.295523,-3.608490,-8.775511
57.769205,2.111163,-3.547885,-8.955831
57.801313,1.790628,-3.416498,-8.880710
57.835216,1.673158,-3.444930,-8.909442
57.867668,2.073453,-3.562699,-8.903157
57.901412,2.108170,-3.616421,-8.808133
57.935200,2.308991,-3.573474,-8.782395
57.968521,2.508016,-3.661613,-8.760697
58.001568,2.782162,-3.851809,-8.695452
58.034951,2.599897,-3.708601,-8.729122
58.068618,2.177754,-3.753195,-8.798407
58.103249,2.205438,-3.641860,-8.793020
58.135348,2.045320,-3.637670,-8.810977
58.168538,2.290285,-3.674931,-8.767281
58.201969,2.259758,-3.542198,-8.810827
58.237746,2.275321,-3.590683,-8.814568
58.268551,2.630124,-3.590832,-8.790176
58.301979,2.377826,-3.633630,-8.862903
58.337068,2.212172,-3.521847,-8.849435
58.368467,2.171918,-3.539205,-8.840456
58.401262,1.924259,-3.433408,-8.867542
58.435582,2.042926,-3.530077,-8.869487
58.469674,2.282354,-3.539654,-8.804991
58.501839,2.286245,-3.637221,-8.810977
58.535146,2.448308,-3.609538,-8.791523
58.568593,2.461776,-3.621808,-8.823247
58.603312,2.290435,-3.489823,-8.848088
58.635147,2.325751,-3.524840,-8.871732
58.668466,2.309739,-3.513018,-8.828635
58.709630,2.330689,-3.505386,-8.858563
58.735063,2.705844,-3.500747,-8.861257
58.767984,2.430800,-3.420688,-8.906299
58.801748,2.143186,-3.167941,-8.978876
58.835187,1.935183,-3.010218,-9.065669
58.868577,1.628265,-2.997049,-9.073450
58.901264,1.669117,-3.104493,-9.027660
58.935025,1.930394,-3.390909,-8.932187
58.968363,1.749176,-3.453610,-8.931140
59.001697,2.066719,-3.657423,-8.812174
59.035029,2.362264,-3.835349,-8.751120
59.068364,3.481892,-4.399952,-7.767367
59.101525,1.967954,-4.506647,-8.577534
59.135057,3.490571,-3.417246,-9.106522
59.168368,3.327161,-3.942792,-8.999826
59.201513,2.169823,-3.985590,-8.670013
59.235057,3.284812,-3.771900,-9.055044
59.268439,2.396831,-3.958804,-9.170868
59.301716,2.256616,-3.823078,-8.546707
59.335104,3.048227,-3.638419,-8.664177
59.376463,3.482341,-4.077172,-8.615244
59.401908,2.129718,-3.920944,-8.859910
59.435056,2.001774,-3.527832,-8.846592
59.468396,1.779105,-3.578711,-8.917522
59.501873,1.495382,-3.617768,-8.896423
59.535081,2.098144,-3.620162,-8.865447
59.568460,2.163388,-3.475607,-8.899565
59.601438,2.542883,-3.524989,-8.851231
59.635737,2.214865,-3.586044,-8.869337
59.668537,2.018085,-3.587540,-8.924107
59.701859,1.552396,-3.599811,-8.906150
59.735233,1.142973,-3.720872,-8.887295
59.769283,1.298153,-3.727157,-8.841205
59.801798,1.356064,-3.788660,-8.934133
59.835137,1.224678,-3.942493,-8.896722
59.868412,1.095985,-3.876949,-8.936527
59.901873,1.060669,-3.874555,-8.932038
59.935123,0.817649,-3.830411,-8.912584
59.968452,0.777096,-3.872460,-8.899416
60.001193,0.915067,-3.848817,-8.927549
60.034669,0.952028,-3.830560,-8.945506
60.068399,1.140579,-3.929923,-8.907796
60.101393,1.295309,-3.833852,-8.904354
60.135257,1.157339,-3.927978,-8.965109
60.168667,1.349330,-3.931120,-8.927997
60.201264,1.216597,-3.763071,-8.865746
60.235133,1.262388,-3.809610,-8.894328
60.269014,1.386442,-3.913013,-8.947002
60.301138,1.345290,-3.888322,-8.885349
60.335045,1.396917,-3.952220,-8.853176
60.372001,1.204027,-3.957008,-8.887893
60.401881,1.157488,-3.996365,-8.881907
60.435076,1.120227,-4.049637,-8.874575
60.468203,1.034182,-3.983645,-8.847789
60.501229,1.027000,-3.973320,-8.850034
60.538353,1.246226,-3.959552,-8.875772
60.568517,1.213006,-3.894158,-8.899416
60.601297,1.240241,-3.979156,-8.882805
60.635304,1.246226,-3.918999,-8.875174
60.670032,1.282739,-3.945785,-8.889390
60.701291,1.196395,-3.861237,-8.912285
60.735139,1.046453,-3.802128,-8.925753
60.768931,1.189063,-3.839090,-8.906150
60.801810,1.110949,-3.944139,-8.903755
60.836275,1.031190,-3.851660,-8.861107
60.868471,1.359357,-3.914360,-8.934582
60.901252,1.278699,-3.906130,-8.910789
60.935617,1.406344,-3.933215,-8.857665
60.968686,1.617191,-4.043053,-8.852428
61.001847,1.383150,-3.939800,-8.863651
61.035126,1.386592,-3.870365,-8.907646
61.068467,1.169011,-3.791803,-8.923209
61.104918,1.180683,-3.821282,-8.913033
61.135067,1.337658,-3.956410,-8.844796
61.168472,1.437769,-3.901042,-8.880710
61.201807,1.191756,-3.931419,-8.871283
61.235127,1.421159,-3.888472,-8.897770
61.268466,1.185471,-3.894757,-8.921712
61.302360,1.230364,-3.952220,-8.865746
61.336129,1.277801,-3.963742,-8.869936
61.368457,1.079973,-3.920196,-8.888492
61.401193,1.173201,-3.951771,-8.848836
61.435133,1.195647,-3.932467,-8.842551
61.468446,1.242635,-3.974068,-8.901062
61.501795,1.331523,-3.939949,-8.842551
61.535116,1.435824,-3.901790,-8.868739
61.568470,1.241588,-3.856149,-8.917074
61.601813,1.458869,-3.995616,-8.839259
61.635300,1.382850,-3.883534,-8.893430
61.668604,1.145816,-3.839838,-8.871732
61.703111,1.371627,-3.955811,-8.842551
61.735130,1.150605,-3.961348,-8.824145
61.768464,1.287977,-4.044400,-8.863052
61.802588,1.201783,-3.779083,-8.935180
61.835138,0.863440,-3.898648,-9.068063
61.868475,0.789666,-3.763670,-8.899715
61.901614,0.979712,-3.817990,-8.931888
61.935146,1.013532,-3.875603,-8.841504
61.968999,1.655500,-3.943690,-8.955981
62.001779,1.529351,-3.870365,-8.952090
62.035141,1.383449,-4.018512,-8.858264
62.068494,1.343794,-4.142566,-8.753364
62.101509,1.146415,-4.056671,-8.834770
62.135117,0.907285,-3.912564,-8.839110
62.169818,1.290221,-3.913462,-8.885349
62.201790,0.967891,-3.887424,-8.852129
62.235796,1.200436,-4.005792,-8.845095
62.268403,1.509598,-3.920196,-8.858114
62.301745,1.329278,-3.934263,-8.853625
62.335245,1.466950,-4.026293,-8.848238
62.368465,1.235303,-3.840137,-8.924256
62.401963,1.324939,-3.958954,-8.834471
62.435136,1.562272,-4.169651,-8.750072
62.469072,1.605070,-4.146307,-8.732115
62.502552,1.229167,-4.067445,-8.804392
62.537397,1.362798,-4.035721,-8.797359
62.568501,1.397815,-3.891764,-8.833872
62.601917,1.383449,-4.085252,-8.814718
62.635078,1.437470,-4.087647,-8.838960
62.668510,1.026700,-3.932168,-8.830730
62.701805,1.010539,-3.916455,-8.843000
62.735173,0.964598,-3.941595,-8.894477
62.768477,1.148959,-4.038863,-8.764438
62.801611,1.519325,-4.102611,-8.776409
62.835405,1.205374,-4.000106,-8.798107
62.868368,1.450938,-4.110542,-8.789129
62.901915,1.715656,-4.081212,-8.748276
62.934486,0.992133,-3.918101,-8.826240
62.967545,1.295459,-4.091837,-8.821901
63.001124,1.430138,-4.082409,-8.744685
63.034898,1.152101,-4.033775,-8.801549
63.067907,1.445401,-4.156183,-8.740645
63.101616,1.520672,-4.103060,-8.757255
63.135102,1.190709,-4.034523,-8.862903
63.168408,1.322395,-3.993821,-8.857216
63.201737,1.156590,-4.003248,-8.826989
63.235121,0.656484,-3.982148,-8.816214
63.267643,1.278699,-4.112338,-8.806487
63.301771,1.384796,-4.171746,-8.744236
63.335063,1.356513,-4.112787,-8.800502
63.368467,1.314613,-4.241629,-8.664626
63.401711,1.853926,-3.875603,-8.855720
63.435120,1.559878,-3.883085,-8.868440
63.468381,1.694257,-4.069091,-8.797210
63.501802,1.566462,-4.074628,-8.789727
63.535071,1.209714,-3.900294,-8.845245
63.568813,1.285882,-4.007139,-8.842701
63.601709,1.242485,-4.025844,-8.807385
63.635068,1.455577,-4.032428,-8.797509
63.668527,1.329727,-4.164264,-8.731965
63.701202,1.445252,-4.115031,-8.739747
63.735794,1.570054,-4.081212,-8.775511
63.767911,1.520372,-3.961647,-8.805889
63.801737,1.572598,-4.045148,-8.804392
63.835440,1.432382,-3.955961,-8.837164
63.868402,1.466950,-3.912864,-8.831029
63.902149,1.325687,-3.876800,-8.860957
63.934116,1.393774,-3.878745,-8.837015
63.968403,1.472038,-4.014920,-8.846741
64.001801,1.376117,-3.911667,-8.802597
64.035858,1.628115,-3.986937,-8.803046
64.068399,1.507204,-4.048440,-8.768029
64.101263,1.656547,-4.061160,-8.788830
64.135076,1.683034,-4.024048,-8.818010
64.168406,1.541921,-3.961498,-8.724932
64.201859,1.791076,-4.223074,-8.762492
64.235901,1.663880,-4.054725,-8.795713
64.267857,1.571999,-4.027341,-8.806936
64.301119,1.596541,-4.108896,-8.769975
64.335200,1.288426,-3.886826,-8.805889
64.368416,1.509299,-3.874106,-8.913033
64.401869,1.189961,-3.729102,-8.972890
64.434032,1.260742,-3.487279,-8.878765
64.468020,1.598935,-3.627794,-8.900014
64.501262,1.813822,-4.046196,-8.829981
64.535124,2.504424,-4.103509,-9.018083
64.567592,1.115887,-4.350719,-8.876969
64.601143,1.248770,-3.744665,-8.941615
64.634880,0.781585,-4.103210,-8.651906
64.668180,1.193403,-4.021056,-8.823996
64.701437,1.129056,-3.944887,-8.812922
64.735688,0.940805,-4.054875,-8.822798
64.767501,1.173949,-4.078668,-8.886097
64.801372,0.734148,-3.892363,-8.912584
64.835064,1.166317,-4.020158,-8.852428
64.867489,0.737590,-3.887574,-8.939071
64.900944,0.812561,-4.017315,-8.818309
64.935135,0.819894,-4.056521,-8.736305
64.968381,0.683868,-4.222325,-8.742889
65.001608,1.091047,-4.178929,-8.819806
65.035215,0.777545,-4.006690,-8.846741
65.067897,1.157787,-4.070288,-8.845095
65.101561,1.334815,-4.109495,-8.849435
65.135115,1.179336,-4.003398,-8.828036
65.168394,1.226324,-4.078818,-8.790176
65.201746,1.354867,-4.115780,-8.820255
65.234884,1.110500,-3.925284,-8.877867
65.268381,1.076531,-3.898199,-8.894926
65.301799,0.959660,-3.913462,-8.869487
65.335043,1.074287,-4.052630,-8.811575
65.368407,1.082816,-4.067595,-8.794366
65.402173,1.135191,-4.067744,-8.840905
65.435064,1.019966,-3.917802,-8.841055
65.468406,1.094339,-4.096176,-8.826091
65.501987,1.241887,-4.121466,-8.777906
65.535062,1.257001,-4.068492,-8.851979
65.568382,1.185621,-4.075526,-8.821152
65.601777,1.207918,-4.074329,-8.782096
65.635047,1.202531,-4.080314,-8.831478
65.668420,1.218991,-4.047991,-8.811126
65.701500,1.182628,-4.108148,-8.837763
65.735190,0.952926,-3.985441,-8.863801
65.767913,0.964299,-4.037516,-8.795115
65.801142,0.974924,-3.967932,-8.844796
65.835070,0.811364,-3.910021,-8.838960
65.868685,1.073539,-4.047093,-8.802297
65.901801,0.992133,-3.997412,-8.884451
65.935067,1.039869,-3.982448,-8.861107
65.968796,1.012783,-4.056371,-8.801998
66.001466,1.000812,-4.062806,-8.796611
66.035661,0.970883,-4.046345,-8.841504
66.068388,0.878703,-3.879194,-8.865297
66.102108,0.950831,-4.002201,-8.898967
66.135162,0.955171,-4.054725,-8.824145
66.168776,0.931078,-3.972871,-8.837314
66.200998,0.907435,-3.899994,-8.885050
66.235482,0.893668,-3.792401,-8.962565
66.271171,0.916264,-3.786864,-8.888941
66.302169,0.905489,-3.791054,-8.923658
66.339119,1.016674,-3.750800,-8.940567
66.368500,0.989290,-3.864978,-8.856917
66.401840,1.209265,-3.855999,-8.904055
66.435238,1.094339,-3.787762,-8.903905
66.469331,1.365642,-3.895356,-8.879364
66.501641,1.252362,-3.916156,-8.885349
66.535354,1.173799,-3.919598,-8.851829
66.568751,1.322395,-4.045148,-8.787034
66.600853,1.040767,-4.132540,-8.786585
66.635069,1.072641,-3.977510,-8.826540
66.668474,0.959361,-3.997412,-8.833274
66.701645,1.567510,-4.188805,-9.582985
66.735122,0.581064,-4.270510,-8.679590
66.768023,1.716854,-4.505749,-8.255203
66.802433,1.164372,-4.312560,-8.572895
66.835388,0.889627,-4.398754,-8.667170
66.869120,1.301145,-4.374363,-8.701737
66.901830,0.557121,-4.032578,-8.783742
66.935480,0.805378,-4.015968,-8.785837
66.970251,0.968938,-3.973469,-8.863801
67.001922,0.940207,-3.914959,-8.851081
67.035172,1.013083,-3.867372,-8.835069
67.069153,1.463957,-3.941296,-8.803644
67.101803,1.457223,-3.927828,-8.865297
67.135124,1.019817,-3.753195,-8.957477
67.168809,1.504211,-3.821582,-8.926202
67.201467,0.993180,-3.715185,-8.889988
67.235220,0.732652,-3.738829,-8.989800
67.268671,1.377912,-3.957457,-8.857067
67.301488,0.958463,-3.875154,-8.863651
67.335123,1.123070,-3.983046,-8.801250
67.369105,1.387040,-4.269613,-8.702785
67.401626,1.401705,-4.214694,-8.740794
67.435241,1.176493,-3.993521,-8.793917
67.468773,1.384497,-4.054875,-8.783143
67.501795,1.284385,-4.060861,-8.799604
67.535138,1.387340,-4.012077,-8.829832
67.568603,1.480717,-3.913313,-8.867991
67.602028,1.254158,-3.823677,-8.879364
67.635596,1.286331,-3.890717,-8.948349
67.668541,1.191008,-3.843130,-8.878765
67.701509,0.790713,-3.771601,-8.905252
67.734546,0.959511,-3.838042,-8.856767
67.768355,1.020715,-3.876201,-8.863352
67.801787,0.892022,-3.834750,-8.853326
67.835016,1.353969,-4.042455,-8.805141
67.868353,1.260293,-3.968830,-8.835668
67.901210,1.138633,-4.055025,-8.842402
67.935034,1.159284,-4.032279,-8.797359
67.968381,1.177840,-3.929175,-8.826540
68.001809,1.166018,-3.901491,-8.850632
68.035066,1.217794,-3.938303,-8.808133
68.071378,1.223331,-3.968082,-8.841953
68.101851,1.213604,-4.026892,-8.838810
68.136037,1.125016,-3.996365,-8.798856
68.168438,1.122921,-3.957757,-8.825043
68.202487,1.110650,-3.935460,-8.890587
68.234838,1.063512,-3.960899,-8.822499
68.269154,1.244131,-4.116677,-8.795713
68.302713,1.150605,-3.960001,-8.824145
68.335171,1.168412,-4.032428,-8.813371
68.368978,1.224079,-4.011478,-8.807685
68.402179,1.286780,-3.986488,-8.841803
68.435182,1.068151,-3.850463,-8.886546
68.468587,1.139232,-3.918101,-8.866943
68.502529,1.174847,-3.957308,-8.839708
68.535296,0.981358,-3.910769,-8.854074
68.568449,1.002009,-3.950873,-8.853326
68.601948,1.153149,-3.972871,-8.837015
68.635335,0.995575,-3.914510,-8.852727
68.668798,1.182329,-3.990229,-8.866794
68.701983,1.076082,-3.990229,-8.863202
68.735240,1.091795,-3.956260,-8.845993
68.768953,1.067403,-3.990828,-8.809630
68.801729,1.076531,-3.982597,-8.837613
68.835065,1.161529,-4.004745,-8.843449
68.867893,1.025353,-3.970027,-8.849435
68.901387,1.112446,-3.967334,-8.813221
68.935134,0.870174,-3.919149,-8.851979
68.968509,0.930330,-3.899994,-8.870684
69.001784,1.065907,-3.916156,-8.879962
69.035121,0.933922,-3.894009,-8.897171
69.068762,1.078477,-3.909272,-8.843150
69.101772,1.017273,-3.906429,-8.881758
69.135174,1.078626,-3.865277,-8.900912
69.168716,1.028496,-3.858693,-8.869038
69.201636,1.058724,-3.915108,-8.858563
69.235127,1.016824,-3.916306,-8.857815
69.269071,0.865834,-3.863033,-8.886097
69.301828,1.040617,-3.941595,-8.856618
69.335724,1.013831,-3.945486,-8.858414
69.368604,0.879152,-3.993970,-8.848836
69.401815,1.156590,-4.079865,-8.774015
69.435174,0.943798,-4.073131,-8.812323
69.468595,0.831715,-4.198532,-8.743787
69.501973,1.129206,-4.235793,-8.732713
69.535065,1.049895,-4.124908,-8.822050
69.568396,1.124716,-4.115929,-8.795115
69.601099,1.118731,-4.169501,-8.820105
69.635053,0.969387,-3.939351,-8.847340
69.668375,1.065607,-3.994120,-8.887295
69.701123,1.014280,-3.977510,-8.866045
69.735137,1.006498,-3.959403,-8.782694
69.768638,1.416071,-4.354310,-8.786286
69.802095,1.071892,-4.318097,-8.643526
69.837538,1.140878,-4.474773,-8.518574
69.868668,1.136688,-4.666316,-8.551945
69.901636,1.252212,-4.871177,-8.552244
69.936546,1.410834,-4.811470,-8.496427
69.968398,1.382850,-4.858009,-8.517078
70.001796,1.043760,-4.778698,-8.450936
70.035139,0.942302,-4.896168,-8.517078
70.068955,1.355615,-5.045661,-8.526505
70.101487,1.114990,-4.874469,-8.476225
70.135150,0.977318,-4.752660,-8.339901
70.169114,1.644277,-5.522573,-8.573493
70.201734,1.494185,-5.045511,-8.257896
70.235091,1.250416,-5.306040,-8.667319
70.268432,1.519624,-5.608468,-8.179334
70.301749,0.929582,-4.991490,-8.240239
70.335099,1.001860,-5.053592,-8.480415
70.367520,1.136837,-3.558210,-9.497389
70.401722,1.057676,-3.217323,-9.311832
70.434445,0.375305,-3.111376,-9.428852
70.468355,-0.210697,-2.817627,-8.898967
70.501679,-0.209201,-2.436187,-9.458631
70.535097,0.383984,-2.870750,-9.168174
70.568346,0.470627,-3.037752,-9.416133
70.601054,-0.246612,-3.152229,-9.390993
70.635011,-0.425585,-2.359720,-9.573108
70.668423,-0.843238,-2.088866,-9.769290
70.701337,-0.348668,-2.887211,-9.276217
70.735148,-1.274060,-3.340480,-9.094400
70.768378,-0.872568,-4.003248,-8.766832
70.801700,0.373210,-5.099832,-8.742889
70.835162,0.344179,-5.255909,-8.860658
70.869606,-0.622515,-4.680831,-8.801848
70.901590,-0.098764,-3.839090,-8.476225
70.934190,0.617128,-3.825921,-8.850482
70.968379,0.380542,-3.933365,-8.825342
71.002364,2.358672,-3.732993,-8.803046
71.035195,1.455577,-3.782225,-8.990848
71.068436,0.560562,-3.545041,-9.166528
71.101793,0.676685,-3.307708,-9.184785
71.135063,-0.140066,-2.676065,-9.413888
71.168552,-0.235388,-2.347898,-9.303302
71.201085,1.111997,-2.984479,-9.367648
71.235068,2.343109,-3.837893,-9.048610
71.268573,2.140642,-3.779532,-8.980971
71.301083,2.135405,-3.896702,-9.226834
71.335137,1.453931,-3.731646,-8.914230
71.368464,1.554491,-3.841933,-8.841953
71.401766,1.301894,-3.766663,-8.800053
71.434391,0.760336,-3.490571,-8.878765
71.468587,0.947539,-3.495210,-8.948349
71.502037,1.352772,-3.303518,-9.096047
71.535285,1.389135,-3.232737,-9.052650
71.568387,1.618987,-3.365919,-9.049208
71.601340,1.951194,-3.669993,-8.955382
71.634354,1.573645,-3.825023,-8.932187
71.668453,1.543866,-4.039761,-8.768179
71.701434,1.427743,-4.419256,-8.676298
71.735065,1.287528,-4.307772,-8.672557
71.768403,1.199239,-4.168304,-8.700540
71.801454,1.127859,-4.108148,-8.850333
71.835356,1.372076,-4.100965,-8.792720
71.869079,1.835520,-3.929324,-8.844796
71.901080,1.278100,-3.649941,-8.898817
71.935132,1.524712,-3.737782,-8.946703
71.969407,1.687224,-3.710846,-8.873976
72.001477,1.848839,-3.870964,-8.881159
72.035291,1.774616,-4.027939,-8.910489
72.069205,1.465004,-4.086599,-8.762492
72.101677,1.323891,-4.279339,-8.701887
72.135164,0.968040,-4.310315,-8.663578
72.169132,0.673992,-4.376009,-8.780450
72.200922,0.574180,-4.538072,-8.690813
72.234327,0.392962,-4.425690,-8.584717
72.268396,0.283424,-4.406985,-8.681087
72.303171,0.327568,-4.152891,-8.699642
72.335162,1.087605,-3.980652,-8.862304
72.367479,1.230065,-3.938004,-8.886397
72.401481,1.282440,-3.960001,-8.898817
72.435662,1.340502,-3.831308,-8.998330
72.468714,1.163324,-3.610884,-9.055493
72.501712,0.660075,-3.423531,-9.025864
72.535451,0.784877,-3.595022,-9.058785
72.568405,0.517615,-3.599362,-8.987256
72.601636,0.777844,-3.736135,-8.950893
72.635126,0.900402,-3.858693,-8.912734
72.668446,0.888131,-3.976163,-8.874126
72.701823,1.004852,-3.996813,-8.858862
72.735072,1.150305,-3.966586,-8.877867
72.769225,1.262687,-3.995167,-8.882356
72.801310,1.428940,-3.996664,-8.892083
72.835253,1.543866,-3.933066,-8.893280
72.869384,1.223481,-3.976911,-8.864848
72.901133,1.193702,-4.049787,-8.810827
72.935147,0.972978,-4.061160,-8.760547
72.968649,0.911475,-4.158428,-8.849136
73.001365,1.052588,-4.047093,-8.825642
73.035078,0.964299,-3.984094,-8.906599
73.068734,0.742229,-3.892662,-8.906000
73.101133,0.932276,-3.832805,-8.887594
73.135187,0.889777,-3.718478,-8.995038
73.168939,0.765274,-3.724912,-8.999527
73.201403,0.978216,-3.813650,-8.913183
73.235042,0.888879,-3.791354,-8.900314
73.268422,0.758540,-3.799285,-8.933235
73.301483,1.169460,-3.841634,-8.916325
73.335113,1.136538,-3.900593,-8.864998
73.368798,1.103317,-3.881888,-8.989800
73.401455,0.959511,-3.770254,-8.971843
73.435248,0.978066,-3.795843,-8.986658
73.468402,0.875112,-3.797190,-8.970496
73.501482,0.774103,-3.759629,-8.912285
73.535154,0.934071,-3.835199,-8.926800
73.568406,0.927188,-3.902538,-8.909292
73.601442,1.103018,-3.847171,-8.982318
73.635133,1.132199,-3.801529,-8.977679
73.668477,1.053636,-3.793898,-8.949396
73.702759,1.080572,-3.813800,-8.934731
73.735321,1.090598,-3.813052,-9.010002
73.768474,0.972380,-3.706207,-8.987855
73.801060,1.145966,-3.781477,-8.968700
73.834647,0.848326,-3.824574,-8.946104
73.868372,0.607850,-3.790157,-8.921114
73.901198,0.602762,-3.838491,-8.921114
73.935070,0.470028,-3.899845,-8.844646
73.968422,0.440998,-3.915557,-8.867991
74.002164,0.663218,-3.941745,-8.910489
74.035034,0.626106,-3.847470,-8.921264
74.068419,0.995724,-4.014621,-8.888492
74.101412,1.051840,-4.102162,-8.766084
74.135064,0.868528,-4.106951,-8.850632
74.168452,0.978066,-4.213796,-8.791373
74.202669,1.113344,-4.346978,-8.754412
74.235961,1.066206,-4.410576,-8.721341
74.267888,1.018021,-4.318845,-8.665374
74.301653,1.019368,-4.209905,-8.759200
74.335041,1.161379,-4.061609,-8.861556
74.368538,1.126213,-3.916904,-8.867392
74.401725,1.183227,-3.902239,-8.915278
74.435134,1.249818,-3.911367,-8.910938
74.469882,1.251614,-3.981101,-8.876820
74.501388,1.515883,-4.019858,-8.884751
74.535133,1.453332,-3.893410,-8.856169
74.569166,1.465603,-3.907477,-8.832226
74.601105,1.257300,-4.107998,-8.848836
74.635177,1.462909,-4.024946,-8.752167
74.668444,1.497776,-4.002350,-8.798556
74.701483,1.161678,-4.048590,-8.888492
74.735425,1.453033,-4.227713,-8.768927
74.768399,1.224379,-4.055922,-8.793319
74.803536,0.966843,-4.021505,-8.851680
74.835044,1.183227,-3.943391,-8.859311
74.868703,1.051391,-3.896852,-8.868440
74.902571,1.016973,-4.036768,-8.831777
74.934693,1.129954,-4.044849,-8.819955
74.968464,1.052888,-3.929773,-8.863052
75.001961,1.178887,-3.957757,-8.877269
75.035198,1.133695,-3.877249,-8.860957
75.068710,1.269870,-3.944139,-8.836865
75.101805,1.293065,-3.973469,-8.859012
75.135215,1.065907,-3.938153,-8.857067
75.168629,1.141027,-3.866774,-8.895974
75.202384,0.983005,-3.826520,-8.936976
75.235042,1.078477,-3.900743,-8.893131
75.268377,1.111997,-4.003996,-8.863352
75.300765,0.963252,-4.009982,-8.793917
75.335026,1.030890,-4.216489,-8.800053
75.368210,0.963252,-4.098271,-8.812174
75.401264,1.161678,-4.091537,-8.818010
75.434238,1.187866,-4.099169,-8.896423
75.468352,1.203279,-3.944887,-8.820404
75.501759,1.434178,-3.944738,-8.921264
75.535101,1.306832,-3.958655,-8.906000
75.567696,1.223331,-3.850612,-8.855570
75.601694,1.083265,-3.999806,-8.891036
75.635020,0.979712,-3.919448,-8.814568
75.668348,1.456475,-3.920346,-8.881010
75.701688,1.231711,-3.951472,-8.896423
75.735019,1.556137,-4.158727,-8.855870
75.768422,1.426247,-4.061609,-8.830879
75.801682,1.379109,-3.908973,-8.941166
75.835015,1.242036,-3.860788,-8.883853
75.868346,0.996023,-3.854802,-8.848537
75.901057,1.141925,-3.931719,-8.903157
75.935014,0.965646,-3.813650,-8.922760
75.968350,0.675039,-3.809610,-8.935779
76.001686,0.686861,-3.840137,-8.898368
76.035022,1.014130,-3.866474,-8.907496
76.068490,1.103916,-3.808263,-8.950743
76.101239,1.118282,-3.835648,-8.920515
76.135068,1.546261,-3.988134,-8.895675
76.168371,1.218393,-3.993222,-8.867392
76.201190,1.275856,-3.976462,-8.902708
76.236307,0.832164,-3.997412,-8.854373
76.268459,0.643614,-3.954016,-8.883404
76.301413,0.833810,-4.020457,-8.884152
76.335139,0.583009,-3.908374,-8.871732
76.368527,0.492325,-3.942643,-8.848836
76.402484,0.729210,-3.916605,-8.890287
76.434453,0.802685,-3.907327,-8.887295
76.468403,0.876010,-3.854503,-8.931888
76.502231,0.882295,-3.859292,-8.907496
76.535160,0.831267,-3.890567,-8.901361
76.568377,0.905789,-3.849565,-8.919767
76.601252,1.024007,-3.900144,-8.922161
76.635045,1.080721,-3.981550,-8.910789
76.668375,1.131750,-4.007887,-8.907047
76.701379,1.154196,-4.001752,-8.843150
76.735419,1.290521,-4.158577,-8.768328
76.768127,1.250716,-4.215442,-8.780599
76.801412,0.907435,-4.086749,-8.781796
76.835082,1.052588,-4.141668,-8.817860
76.869329,0.638826,-3.925284,-8.863950
76.901209,0.871371,-3.910769,-8.910489
76.935729,0.897409,-3.954315,-8.870235
76.968485,0.980461,-3.911218,-8.870535
77.002158,1.028945,-4.000405,-8.892682
77.035329,1.084762,-3.903137,-8.869786
77.067903,1.182927,-3.981550,-8.906449
77.103902,1.169011,-3.944588,-8.872181
77.134746,1.222733,-4.014471,-8.843150
77.167810,1.255953,-3.923638,-8.888192
77.202210,1.330625,-3.864379,-8.943560
77.234665,1.398413,-3.817990,-8.877119
77.268394,1.399610,-4.000405,-8.896572
77.301494,1.292616,-3.958355,-8.789578
77.335143,1.259694,-4.029436,-8.869487
77.368670,1.143871,-3.980203,-8.839259
77.401977,1.113344,-3.981101,-8.847340
77.436397,0.980610,-3.917054,-8.870385
77.468387,1.097481,-3.951322,-8.882057
77.501725,1.189362,-4.028238,-8.807535
77.534986,0.889627,-4.066397,-8.826689
77.568384,1.109453,-4.184166,-8.790925
77.601724,1.043460,-4.039312,-8.834920
77.635127,0.775300,-4.016417,-8.832974
77.668434,0.966245,-4.135383,-8.769675
77.701801,1.174099,-4.061010,-8.861257
77.735558,0.998867,-3.959552,-8.835668
77.768521,1.346338,-4.103509,-8.838212
77.801936,1.289024,-4.011628,-8.821751
77.835162,1.402903,-3.910469,-8.894328
77.868461,1.715806,-3.996215,-8.823098
77.903392,1.887297,-4.129397,-8.878615
77.935133,1.847342,-4.069839,-8.802148
77.969776,1.421009,-4.049488,-8.759649
78.001268,1.273162,-3.897600,-8.886397
78.034731,0.798944,-3.641112,-8.967204
78.070574,0.750010,-3.732843,-8.985909
78.101577,0.916713,-3.754242,-8.965408
78.135439,0.888131,-3.763969,-8.872181
78.168395,1.183526,-4.266919,-8.827587
78.201297,1.312069,-4.171596,-8.735856
78.235941,1.215250,-4.201974,-8.738400
78.268402,1.275257,-4.284128,-8.744236
78.302227,1.252661,-4.184915,-8.779701
78.334380,1.113044,-4.083756,-8.827437
78.368472,1.028496,-3.986937,-8.857366
78.401479,0.919706,-3.876201,-8.854373
78.435077,0.742229,-3.666551,-8.910040
78.468404,0.480204,-3.574072,-8.922610
78.501364,0.629398,-3.665055,-8.877717
78.535143,1.162277,-3.986039,-8.795563
78.568634,1.309226,-4.150646,-8.822200
78.601269,1.700393,-4.321838,-8.731067
78.634834,1.772820,-4.516972,-8.635894
78.668343,1.794369,-4.598677,-8.575289
78.701075,2.108768,-4.627708,-8.530695
78.734440,1.571850,-5.046559,-8.517078
78.770192,2.212321,-4.799049,-8.414722
78.801185,1.967954,-4.571293,-8.645172
78.835075,1.233208,-3.988583,-8.903456
78.868454,1.090448,-3.755290,-8.829682
78.902129,1.343345,-3.748107,-8.952389
78.937230,1.367886,-3.809161,-8.952090
78.968375,1.471289,-3.913612,-8.904354
79.001960,1.720146,-4.019858,-8.778504
79.035493,1.643678,-4.063554,-8.771770
79.068441,1.522318,-4.388728,-8.667918
79.101712,1.730321,-4.447388,-8.654749
79.135116,1.466950,-4.289216,-8.687671
79.168699,1.193403,-4.163067,-8.703383
79.201740,0.915815,-4.031830,-8.822350
79.235485,0.466287,-3.733891,-8.917822
79.268426,0.668904,-3.550429,-8.917373
79.302137,1.017273,-3.574970,-9.003418
79.335465,1.267476,-3.512120,-9.014790
79.368378,1.816665,-3.633181,-9.114752
79.401640,1.481166,-3.512270,-9.050854
79.435698,1.202830,-3.553122,-8.995636
79.468426,1.136239,-3.710846,-8.921563
79.501590,1.028197,-3.968980,-8.879513
79.535310,1.346637,-4.091986,-8.799604
79.568405,1.099576,-4.153639,-8.745134
79.602295,1.108854,-4.306724,-8.755010
79.635077,1.148061,-4.249560,-8.707274
79.668476,0.959062,-4.217686,-8.734060
79.701766,1.165719,-4.260185,-8.738250
79.735007,1.343045,-4.245520,-8.729421
79.768368,1.291868,-4.208558,-8.739747
79.801761,1.263884,-4.170699,-8.818309
79.835083,1.092094,-4.079117,-8.829981
79.868446,1.195348,-3.983795,-8.834770
79.901733,1.040916,-3.934712,-8.911387
79.935018,1.171405,-3.952370,-8.853026
79.968347,1.129655,-3.974816,-8.860808
80.001770,1.094788,-4.001003,-8.927100
80.035040,1.102719,-3.873807,-8.817112
80.068347,1.252661,-3.958355,-8.856618
80.101083,1.019817,-3.929474,-8.862304
80.135043,1.278250,-4.024797,-8.840157
80.168419,1.061866,-4.054276,-8.826091
80.201519,1.000662,-4.010880,-8.843449
80.234971,1.072641,-4.077770,-8.813072
80.267976,0.968788,-4.079117,-8.857067
80.302128,1.093890,-4.148252,-8.781347
80.334357,1.136987,-4.169950,-8.790925
80.368380,0.994527,-4.078967,-8.785837
80.401888,1.233357,-4.181473,-8.764587
80.435964,1.224678,-4.148851,-8.793468
80.470236,1.240540,-3.971973,-8.860060
80.501727,1.368036,-3.935909,-8.835069
80.535609,1.250117,-3.983046,-8.868589
80.569633,1.390183,-4.027790,-8.826091
80.607433,1.428043,-4.119371,-8.802148
80.637307,1.399162,-3.999657,-8.849585
80.668409,1.297853,-4.018063,-8.810528
80.701762,1.134742,-4.055773,-8.782694
80.735035,1.320749,-4.075675,-8.810827
80.768356,1.394373,-4.039013,-8.770573
80.801725,1.385394,-4.055922,-8.879214
80.835062,1.262538,-3.957607,-8.851829
80.868381,1.296955,-3.904184,-8.811426
80.901726,1.457073,-4.045298,-8.803794
80.935039,1.519474,-4.083756,-8.852278
80.968362,1.604322,-4.038713,-8.799305
81.001719,1.538329,-4.106502,-8.788530
81.035038,1.505857,-4.087796,-8.798706
81.068343,1.717003,-4.125656,-8.805141
81.101099,1.452734,-4.088096,-8.780599
81.135023,1.609859,-4.081362,-8.800651
81.168362,1.413228,-4.066547,-8.844946
81.201151,1.259694,-3.965239,-8.771172
81.235464,1.191607,-3.919747,-8.833872
81.268377,1.041216,-3.869916,-8.860808
81.302827,1.028047,-3.853156,-8.886397
81.335060,0.963401,-3.853306,-8.830430
81.368816,1.048698,-3.980053,-8.833423
81.402071,1.273162,-4.161121,-8.735706
81.435045,1.539676,-4.299242,-8.688569
81.468453,1.642481,-4.449034,-8.682583
81.501773,1.313715,-4.279190,-8.658042
81.535149,1.528453,-4.340843,-8.708172
81.572326,1.278250,-4.350869,-8.730768
81.601366,1.606118,-4.424493,-8.699343
81.635445,1.417717,-4.353263,-8.629161
81.669494,1.311171,-4.347277,-8.626018
81.701688,1.616593,-4.439158,-8.673305
81.736290,1.469793,-4.563062,-8.693058
81.769038,1.119778,-4.525652,-8.538327
81.801963,1.513189,-4.660480,-8.494033
81.835584,1.496729,-4.903051,-8.518425
81.868620,1.399162,-5.200691,-8.389582
81.902778,1.613001,-5.385201,-8.137883
81.934918,1.563918,-5.579886,-8.226471
81.968398,1.485805,-5.905509,-7.935715
82.003683,1.142524,-6.005620,-7.977615
82.034764,1.190859,-5.914338,-8.055878
82.068385,0.906986,-5.730427,-8.186517
82.101708,0.845333,-5.273567,-8.280941
82.135493,1.665825,-4.853070,-8.587111
82.168618,0.744773,-5.033989,-8.236946
82.202675,1.950446,-4.962310,-8.917971
82.237772,1.963315,-4.785581,-8.733761
82.268454,1.329877,-5.101178,-8.445998
82.301738,1.584270,-4.969343,-9.222046
82.335568,-0.160567,-4.457564,-8.351723
82.368445,-0.659776,-4.164563,-8.414423
82.402109,-1.002458,-4.100366,-8.985161
82.436501,0.470178,-4.505450,-8.616291
82.468380,2.622942,-4.614689,-9.510258
82.502483,1.990401,-2.964277,-8.764887
82.535694,0.821240,-2.240155,-10.278226
82.568380,-0.771260,-1.612403,-10.034457
82.602254,-0.702424,-1.962717,-9.827052
82.636218,1.089850,-2.614113,-9.805504
82.668625,0.975373,-3.256679,-9.131811
82.702032,-0.239129,-3.901940,-9.243744
82.736048,0.152337,-3.798686,-9.070308
82.768486,-0.707213,-3.032514,-8.818160
82.802174,-1.836568,-3.094018,-8.511990
82.836415,-0.255141,-3.408866,-9.643740
82.868427,-0.882893,-2.481828,-9.764053
82.902421,-0.900402,-1.853029,-9.854287
82.935054,-0.287015,-2.149621,-9.461026
82.968882,0.568793,-3.181110,-9.829447
83.004148,0.804929,-3.272542,-8.646070
83.035941,0.685963,-4.060112,-8.708471
83.068404,-0.065843,-3.766363,-9.103978
83.101832,-0.097866,-3.536212,-9.202892
83.135045,-0.426782,-3.046880,-9.260205
83.168374,0.111634,-3.601158,-9.081531
83.201759,1.558082,-4.154088,-8.865297
83.235523,2.104578,-4.520564,-8.993840
83.269042,2.019432,-4.734703,-8.903755
83.302102,1.106610,-3.940697,-8.658491
83.335466,0.865984,-3.730898,-8.835668
83.369125,0.537218,-3.496108,-9.209626
83.402308,0.896810,-2.990165,-9.237758
83.436515,1.130852,-3.054063,-9.239105
83.468858,1.852430,-2.951109,-9.103229
83.502215,2.479883,-3.206250,-9.390394
83.534492,2.379622,-2.932702,-9.320062
83.568599,2.020928,-3.087433,-9.216808
83.601106,1.906451,-3.007674,-9.097992
83.635119,1.400808,-3.051968,-9.197056
83.668407,1.112446,-3.049873,-9.207231
83.701939,0.974475,-3.175274,-8.811276
83.735113,1.768630,-3.731347,-9.004914
83.768393,1.543567,-3.851510,-8.914829
83.801348,1.423404,-4.091837,-8.753663
83.834626,1.568707,-4.192696,-8.759799
83.868449,1.377763,-4.173242,-8.732713
83.901548,1.387340,-4.106053,-8.853625
83.935932,1.448244,-3.987835,-8.789278
83.968385,1.280046,-3.876501,-8.872031
84.001127,1.514387,-3.838342,-8.837464
84.035119,1.616742,-3.780130,-8.878765
84.068609,1.694407,-3.801829,-8.807385
84.101691,1.804993,-3.826370,-8.996833
84.135138,1.614198,-3.708601,-8.882356
84.168431,1.464256,-3.787463,-8.890587
84.201142,1.508551,-3.932617,-8.840756
84.234200,1.456475,-3.953866,-8.826091
84.268227,1.373273,-3.897750,-8.782844
84.301093,1.466052,-4.040360,-8.876520
84.335187,1.546709,-3.918849,-8.829981
84.368401,1.452285,-3.838192,-8.921862
84.401150,1.554940,-3.882187,-8.870385
84.436491,1.646222,-3.965837,-8.828036
84.468372,1.725234,-4.002650,-8.798407
84.501098,1.692462,-4.105454,-8.750970
84.535067,1.631557,-4.075077,-8.793917
84.568401,1.604172,-4.045747,-8.751269
84.601767,1.557035,-3.966436,-8.791373
84.635062,1.587712,-4.120568,-8.782844
84.668491,1.590555,-4.099319,-8.793169
84.701312,1.470990,-4.053977,-8.805290
84.734761,1.513638,-4.068044,-8.751269
84.767854,1.424900,-4.250009,-8.812623
84.801110,1.227072,-4.160373,-8.701438
84.835145,1.148061,-4.177881,-8.732414
84.868403,1.112146,-4.330817,-8.731217
84.902510,1.170806,-4.191798,-8.709220
84.935200,1.373722,-4.114732,-8.823098
84.968398,1.205673,-3.959403,-8.879513
85.001630,1.494634,-3.885180,-8.853625
85.035597,1.512741,-3.797788,-8.866195
85.068506,1.501068,-3.747808,-8.877269
85.101602,1.857518,-3.807365,-8.951940
85.135252,1.670764,-3.731197,-8.911836
85.167946,1.696652,-3.768309,-8.885200
85.201286,1.759053,-3.817841,-8.806637
85.234224,1.652357,-3.804822,-8.922161
85.268381,1.775663,-3.865876,-8.768478
85.301315,2.018983,-4.003847,-8.836715
85.335038,1.665825,-4.014621,-8.778055
85.368378,1.984116,-3.905382,-8.868889
85.401395,1.670913,-3.880391,-8.763241
85.435117,1.727478,-3.911667,-8.852577
85.468440,1.597139,-3.941745,-8.756207
85.501963,1.621381,-3.939650,-8.861406
85.535062,1.534139,-3.948778,-8.849136
85.568386,1.416520,-3.880391,-8.860808
85.601096,1.440912,-4.006840,-8.863202
85.635043,1.300846,-3.987685,-8.716402
85.668586,1.430287,-4.094830,-8.805440
85.701180,1.181730,-4.154986,-8.710716
85.735186,1.326734,-4.118024,-8.771471
85.768529,1.200286,-4.006391,-8.783442
85.801115,1.335264,-4.070587,-8.868290
85.834576,1.390183,-3.951322,-8.849136
85.868409,1.408739,-3.866175,-8.866644
85.901269,1.514237,-3.813351,-8.906000
85.935257,1.417568,-3.699473,-8.881459
85.968476,1.571401,-3.716383,-9.008505
86.001359,1.273611,-3.631535,-8.960320
86.035091,1.454679,-3.651288,-8.930990
86.068383,1.413976,-3.658620,-8.948499
86.102091,1.258048,-3.681965,-8.908245
86.135070,1.699495,-3.845225,-8.927848
86.168555,1.357112,-3.726708,-8.896722
86.201955,1.547158,-3.821432,-8.925753
86.235058,1.569306,-3.888472,-8.891485
86.268468,1.341699,-3.750052,-8.903755
86.301155,1.459767,-3.711295,-8.919019
86.334113,1.221086,-3.675081,-8.979026
86.368391,1.124567,-3.622407,-8.932636
86.401475,1.547757,-3.860788,-8.904055
86.435066,1.328979,-3.926781,-8.925753
86.468423,1.028197,-3.734489,-8.927249
86.502566,1.056778,-3.809460,-8.939071
86.535043,1.422057,-3.698575,-8.906898
86.568441,1.326585,-3.888322,-8.910789
86.601520,1.529052,-4.264076,-8.687521
86.635103,1.286630,-4.393218,-8.595940
86.668481,1.892983,-5.173007,-8.516479
86.701708,1.808435,-5.698553,-8.428938
86.735400,2.077493,-5.955789,-8.095085
86.768246,1.635897,-6.292486,-7.864784
86.804423,1.573196,-6.546580,-7.858499
86.834836,1.665975,-6.676021,-7.807321
86.867522,1.138484,-6.179206,-7.514770
86.901452,1.456026,-6.242356,-8.222431
86.935220,1.692761,-6.023428,-8.372972
86.969299,2.477189,-6.068171,-8.331970
87.001424,1.343345,-6.124736,-7.166700
87.035531,2.377078,-6.317327,-8.172750
87.068782,1.846145,-6.158406,-8.101819
87.101731,2.062828,-5.958632,-8.170206
87.135115,2.498888,-6.186539,-7.476162
87.168456,1.966757,-5.661891,-8.245177
87.201977,-0.500107,-7.651244,-7.784127
87.235126,1.326285,-5.878723,-8.909142
87.268380,0.431720,-4.960514,-6.405167
87.301767,3.837144,-5.617896,-9.365404
87.335070,4.263178,-4.200627,-9.310186
87.368408,3.511372,-3.092222,-8.969449
87.401790,4.312859,-2.631172,-10.344817
87.435048,0.903843,-0.360490,-9.098590
87.468476,-3.882187,-0.966394,-11.135081
87.501501,-0.615481,0.342982,-11.437061
87.535042,3.828764,-1.343794,-9.393237
87.568400,2.718264,-2.670528,-9.715718
87.601568,-3.440291,-3.527234,-8.356661
87.636978,-3.567637,-4.378253,-8.868739
87.668394,-2.558445,-5.540979,-8.211806
87.701622,-0.260229,-5.472443,-7.722025
87.734358,2.183141,-4.565756,-9.700155
87.768579,0.871221,-3.002137,-9.753129
87.801660,-1.773867,-3.751100,-8.781347
87.835075,-1.013532,-2.985676,-9.675165
87.867833,0.787870,-2.371392,-8.576187
87.902036,1.144020,-2.976099,-8.559128
87.935058,0.705866,-5.398968,-8.797060
87.968453,4.001452,-4.930735,-8.603721
88.001098,4.535528,-4.247465,-8.004102
88.035053,1.670315,-4.842895,-7.750307
88.068400,4.901106,-3.748406,-9.370641
88.101972,2.303753,-2.418529,-9.050555
88.138543,0.474368,-2.836482,-8.516629
88.168362,0.189897,-4.043652,-9.471501
88.201380,-0.295545,-4.014022,-8.620032
88.235068,2.565030,-4.902153,-7.646006
88.268427,2.940933,-5.134698,-7.400143
88.302048,2.924322,-4.474324,-8.248918
88.335086,2.679058,-3.957906,-8.599681
88.368192,1.937278,-5.011093,-8.161526
88.401361,2.444866,-5.143976,-7.972378
88.435045,1.956881,-4.654794,-8.423252
88.468293,1.735858,-4.523856,-8.008442
88.500800,0.561161,-4.516074,-7.214436
88.534280,-0.302728,-4.526400,-10.139656
88.568391,-3.066932,-3.368163,-9.971458
88.601492,2.077493,-2.836482,-11.341589
88.635041,5.456431,-0.886036,-8.031487
88.668439,5.049552,-4.234446,-7.804778
88.701721,4.422099,-4.403842,-6.972164
88.734461,0.079909,-3.227200,-8.874874
88.768456,-1.893432,-2.865363,-9.534800
88.801685,7.560710,-2.530462,-9.183139
88.835662,2.670977,-3.928277,-10.674331
88.868638,3.616720,-6.047071,-7.802832
88.901717,1.938475,-5.450445,-8.430584
88.935020,-2.521633,-3.375795,-8.725980
88.968357,1.851981,-3.535165,-5.425155
89.001175,-2.718863,-2.141690,-8.604170
89.035022,0.857005,-3.621808,-8.069496
89.068370,2.906066,-3.979156,-9.980885
89.101600,1.487002,-3.051669,-8.475328
89.135032,3.081896,-3.386420,-6.834942
89.168441,1.310573,-3.057654,-8.042261
89.202067,-0.925392,-7.595876,-9.086619
89.235048,7.071826,0.283424,-5.186625
89.269190,3.536661,-3.890268,-7.917608
89.301254,1.576937,-4.700884,-7.642565
89.335470,-4.488839,-0.406879,-11.064749
89.368458,-8.029541,3.582452,-12.089205
89.401685,5.907305,1.803946,-12.608466
89.435505,5.852835,-2.444717,-11.363436
89.468459,-1.245628,-5.904611,-7.353454
89.501791,-4.889284,-4.471930,-8.415021
89.535058,0.511629,-5.561929,-6.712983
89.568435,7.486936,-1.497926,-9.074199
89.601863,0.357946,-2.325900,-8.986358
89.635048,-0.148446,-2.434840,-10.076806
89.668801,-1.867694,-2.106973,-9.898432
89.701233,0.578370,-3.880242,-8.966156
89.735046,0.450276,-4.091537,-8.919019
89.768461,-2.129718,-3.907028,-8.852577
89.801870,-0.862093,-2.756124,-8.980073
89.835655,-0.159819,-2.298815,-10.381928
89.868601,2.241352,-1.684381,-9.479731
89.901877,2.511458,-2.670528,-9.322606
89.935139,0.388922,-4.694748,-8.787483
89.968694,0.776198,-4.886590,-9.229827
90.001339,-2.168925,-4.884944,-8.614196
90.034360,-1.705181,-4.066397,-9.309288
90.068560,0.409722,-3.312197,-9.198702
90.101195,0.910877,-2.974303,-9.550213
90.134164,1.472187,-2.853392,-9.163535
90.168906,0.846829,-4.156632,-9.203640
90.201319,-0.102954,-4.527298,-8.378060
90.235244,-0.015563,-4.467441,-8.413525
90.268827,0.633738,-3.932766,-9.545574
90.301447,1.500619,-2.877784,-10.428617
90.335097,0.255141,-2.728889,-8.069047
90.368518,-0.574928,-3.920196,-7.223864
90.401088,1.094339,-2.688036,-10.239768
90.435091,1.020266,-3.996215,-9.667084
90.468540,0.769614,-3.684509,-9.522978
90.501876,2.066868,-3.487728,-9.014341
90.535553,3.400786,-3.941146,-7.037558
90.568573,2.320364,-5.447751,-7.397001
90.602174,1.841656,-5.328187,-8.645771
90.635013,2.749689,-4.898113,-8.537729
90.667886,2.115502,-3.190687,-8.235600
90.701393,1.144619,-3.845973,-9.314076
90.735127,-0.863141,-2.547073,-9.135852
90.768738,0.846530,-3.623305,-9.237160
90.801151,0.407029,-3.799434,-9.054745
90.835327,0.000150,-3.941895,-9.044270
90.873802,-0.548741,-3.571827,-9.042474
90.901358,-0.394010,-4.074478,-9.774079
90.936149,0.135277,-3.957457,-10.099552
90.968603,0.318440,-3.389413,-8.381801
91.001470,0.473321,-1.214203,-9.567123
91.035984,-0.710804,-3.496707,-8.646369
91.067786,-0.377699,-4.426438,-9.109963
91.101415,1.992047,-3.795993,-7.576722
91.135640,1.555239,-3.711744,-9.763005
91.167800,0.996023,-3.067830,-9.341162
91.201345,1.767283,-2.866860,-9.109963
91.235382,2.632818,-2.593911,-9.394435
91.268716,0.569990,-2.840822,-8.557631
91.301189,1.267176,-3.250694,-8.099275
91.335265,0.795053,-3.669694,-8.359504
91.367873,0.185408,-3.735238,-9.716466
91.401165,0.703621,-2.425413,-11.635188
91.435233,1.573346,-2.027512,-10.078602
91.468610,1.192205,-4.955277,-6.131320
91.501392,0.881247,-5.140385,-9.131063
91.535418,1.529949,-3.858992,-9.988218
91.568635,0.564453,-2.114604,-10.764416
91.601507,1.164671,-2.614711,-9.969512
91.634571,0.201419,-3.208494,-9.026163
91.667451,-0.624161,-1.956731,-12.721147
91.701084,-0.871371,-1.889691,-8.956729
91.735551,0.499059,-3.546837,-10.676575
91.767845,-1.063363,-2.460579,-7.214735
91.801806,-0.793108,-3.388216,-5.708429
91.835145,0.587648,-3.968830,-4.603765
91.868439,0.787421,-5.534993,-6.963186
91.901436,-0.253046,-4.128649,-10.289898
91.935172,1.166916,-2.812539,-9.514299
91.967429,-0.778443,-2.111013,-8.143868
92.001559,1.117384,-3.808563,-13.448561
92.035113,0.253196,-5.591409,-6.915898
92.068803,-0.310359,-3.761275,-8.287077
92.104460,0.326671,-2.533605,-8.544612
92.134959,0.643614,-3.472914,-7.329063
92.168532,2.149322,-3.360532,-11.015966
92.202886,-2.835135,-5.716361,-7.230747
92.234772,0.813459,-1.109752,-4.609601
92.267585,0.659177,-0.764077,-7.897855
92.301709,-0.862392,-1.037774,-6.442428
92.335089,0.503100,-2.616806,-11.559469
92.368430,1.942814,-4.739940,-10.600108
92.401378,-0.508337,-4.208409,-10.169735
92.435091,-1.031938,-2.095001,-5.594102
92.468495,-0.643165,-2.675017,-9.505919
92.501244,-1.418615,-5.817220,-8.153446
92.534887,1.485655,-5.149214,-9.651371
92.568716,0.531981,-3.764418,-10.553120
92.601357,0.581961,-3.750501,-10.445377
92.635042,0.114626,-5.488005,-7.893815
92.668405,0.976570,-5.028302,-13.174864
92.701306,-0.973278,-5.578240,-9.570415
92.735047,0.324725,-2.906216,-9.020776
92.768411,1.516631,-2.874791,-9.988667
92.801338,-1.977232,-3.247252,-9.190920
92.834921,-0.285818,-3.083692,-10.855099
92.868403,1.830283,-3.513167,-8.282737
92.901416,0.013019,-3.833254,-9.347746
92.935069,-0.688507,-3.342575,-10.517056
92.968404,0.340138,-3.893410,-9.064322
93.004794,2.158450,-4.146007,-8.930990
93.035145,-0.283573,-4.219632,-9.622191
93.068466,1.182030,-3.511970,-11.214093
93.101959,1.107807,-4.436315,-8.184422
93.135097,1.212856,0.790863,-12.604725
93.168480,1.593099,-2.915494,-10.119754
93.201239,0.401342,-3.804522,-7.791609
93.234429,1.957030,-2.157103,-10.394648
93.267729,0.861794,-1.092992,-9.352834
93.301080,2.461028,2.716319,-10.624649
93.334989,-0.114776,-3.204753,-8.031487
93.368403,3.180362,-3.065735,-9.941529
93.401182,1.376416,-5.416925,-7.757939
93.435076,0.501005,-0.924344,-10.382976
93.468540,1.133396,-1.848839,-10.343021
93.501362,1.544914,-3.577065,-9.493199
93.535122,0.115824,-3.295886,-10.412156
93.568373,0.549788,-3.409465,-10.837741
93.601509,2.031403,-3.478600,-9.431097
93.635071,0.904592,-5.315018,-7.924342
93.668375,0.135277,-5.364700,-9.952004
93.701598,3.100602,-2.051156,-10.519301
93.735527,1.016674,-4.006241,-9.357473
93.768117,0.692248,-4.883598,-8.423551
93.801244,0.771858,0.123156,-12.896678
93.835045,0.080957,-1.224977,-11.691903
93.868376,-0.881247,-3.663858,-9.037237
93.901405,-1.133246,-4.667364,-10.786862
93.935070,-0.368720,-3.976911,-10.159110
93.967505,0.988691,-3.826071,-9.574754
94.001138,-0.844136,-3.395847,-9.558294
94.035069,-0.313053,-2.548719,-9.414636
94.068352,-0.180170,-3.253088,-8.354266
94.101327,1.180533,-4.160972,-6.646092
94.135075,-0.337594,-4.580122,-8.237246
94.167488,-2.623839,-8.021161,-9.861919
94.201055,0.585702,-2.316772,-9.001921
94.235452,1.860810,-4.216040,-10.455253
94.268377,-0.475116,-4.039611,-9.745048
94.301087,-0.706464,-2.925669,-10.351850
94.335109,1.146265,-4.957222,-10.644552
94.368370,0.973577,-4.231154,-7.354502
94.401356,-1.551199,-2.849501,-7.295692
94.435127,1.024905,-2.778121,-8.157636
94.468406,-1.530997,-3.938004,-5.131706
94.501074,0.402240,-3.354995,-11.331862
94.534348,0.221920,-4.445293,-8.957178
94.567486,1.020565,-3.792850,-10.261316
94.601943,1.236649,-4.168005,-10.672086
94.634340,0.653341,-2.732031,-6.543287
94.668376,2.016139,-2.577749,-7.252296
94.701133,3.058253,-2.282055,-7.677282
94.734353,2.424964,-3.453310,-8.351573
94.768424,2.565628,-4.358500,-7.587047
94.801405,1.404848,-3.892662,-8.781796
94.834899,1.148210,-0.792509,-8.177089
94.867924,3.538756,0.777096,-8.493734
94.900882,2.184488,-1.771623,-7.282823
94.935037,1.062615,-2.082581,-8.144168
94.967927,1.695305,-3.292893,-8.747977
95.001224,0.284920,-4.285325,-7.668453
95.035177,-0.032024,-3.850612,-7.776345
95.071013,2.174162,-3.755290,-10.056006
95.101806,-0.284022,-3.522445,-8.024902
95.135138,0.184210,-5.188271,-8.897770
95.167867,1.126961,-3.301572,-7.967589
95.201119,-1.502266,-4.730662,-9.159645
95.235277,1.525011,-4.820299,-13.062333
95.268119,-2.202295,-4.522808,-6.574413
95.301184,0.569691,-1.750972,-10.578110
95.334850,-2.810444,-4.449334,-9.364356
95.368375,-1.557933,-1.245329,-13.746201
95.401133,0.434713,-0.202766,-9.495743
95.435048,1.286181,-2.883769,-7.401041
95.468383,-1.144020,-1.640685,-9.013144
95.501733,-0.821989,-3.334194,-9.000275
95.535044,0.247061,-4.114433,-6.838982
95.568376,-3.060797,-5.805248,-10.443581
95.601809,2.643742,-5.048953,-7.885734
95.635051,2.301658,-6.132368,-7.192888
95.668384,2.964726,-5.812132,-9.556648
95.701379,0.740583,-4.143912,-8.154493
95.735077,-0.479306,-2.892748,-10.765014
95.768380,2.026315,-4.486894,-7.980009
95.801393,1.054833,-5.112851,-9.437083
95.835035,0.145004,-3.942792,-8.440161
95.868387,0.866283,-3.136965,-9.998992
95.901053,0.535572,-3.730449,-10.194575
95.934842,2.791589,-3.022788,-8.271514
95.968378,1.589657,-5.077834,-7.310806
96.001094,0.525546,-3.882037,-7.886183
96.035046,1.562871,-2.219654,-12.923464
96.068382,2.153661,-2.469408,-7.891870
96.101373,-0.209949,-3.536362,-10.951769
96.135118,1.920218,-5.728482,-6.116805
96.168016,1.077878,-4.137478,-8.711614
96.201189,-0.608748,-3.125143,-8.577234
96.235068,1.729124,-1.870088,-10.779380
96.267958,0.781585,-3.944887,-8.213303
96.301394,0.372312,-1.915729,-10.596666
96.335070,0.535572,-1.677348,-12.195900
96.367985,-1.086408,-5.715463,-12.118086
96.401790,0.988691,-2.872396,-7.871369
96.435139,0.422741,-4.545405,-6.697869
96.468114,2.357924,-2.836781,-13.463675
96.501149,-1.741994,-3.631236,-8.004701
96.534262,1.631856,-3.515711,-7.694491
96.568129,-1.126811,-5.655456,-6.125634
96.601191,-0.295096,-5.833830,-10.589483
96.635161,1.624225,-4.802790,-9.539588
96.668370,1.627966,-5.523920,-7.199322
96.701741,0.846081,-3.988134,-6.746353
96.735070,2.163837,-3.030270,-9.871347
96.768382,0.617726,1.472487,-8.194597
96.801721,3.998908,-2.244046,-8.530396
96.835069,-0.599021,-3.342425,-6.896894
96.868389,-2.321860,-2.197207,-7.229101
96.901555,4.076424,-0.900851,-10.029220
96.935073,-0.047437,-5.823804,-1.653854
96.968340,-3.648744,-6.413098,-8.578880
97.001372,-0.456561,-1.250117,-11.415363
97.035047,3.173927,-1.419812,-14.809863
97.068383,-0.372761,-3.898199,-5.829042
97.101093,-2.575505,-4.937170,-12.244534
97.135126,1.121125,-3.884432,-10.246053
97.168119,1.456774,-3.273589,-8.812174
97.201711,-0.211445,-3.956111,-6.062036
97.235139,2.492902,-2.624588,-12.259498
97.267992,0.729210,-5.157444,-10.430413
97.301269,4.484649,-2.415985,-17.251886
97.335544,1.019667,-5.723992,-7.424834
97.367952,3.787164,-3.615074,-7.462694
97.401743,0.622664,-6.563040,-11.570692
97.435068,2.402667,-2.822865,-9.596303
97.467445,-0.136624,-2.961883,-8.421306
97.501135,2.327247,-1.212557,-7.835903
97.535067,1.508850,-4.397557,-7.940953
97.568416,0.540361,-2.489310,-7.708407
97.601342,-1.242485,-3.341078,-8.001708
97.635108,1.703236,-2.545277,-13.891355
97.668341,-3.969130,-4.153340,-5.927207
97.701332,0.396703,-3.071870,-2.306297
97.735196,2.375282,-7.456558,-9.531358
97.767419,0.106845,-8.048696,-2.901427
97.801711,-2.111462,-3.447773,-4.206763
97.835063,-2.261105,-8.222431,-8.462907
97.868345,-1.254756,-8.216296,-9.682497
97.901733,1.819658,1.697550,-7.603358
97.934776,-4.928341,1.150156,-3.232288
97.968465,1.990102,-5.105069,-8.048546
98.001404,-0.987943,-5.579288,-8.628861
98.035134,2.382016,-1.788084,-15.514681
98.068305,-1.688421,-4.212299,-4.747722
98.101364,-0.546945,-2.416135,-8.855271
98.134355,-1.929795,-7.398796,-9.649875
98.168284,0.186455,-4.406386,-11.768221
98.201116,2.812090,-0.410171,-7.079757
98.235026,-1.076382,-4.970091,-12.207572
98.268373,-2.844263,-8.421157,-5.808541
98.301413,-0.653341,-4.439607,-9.872394
98.335090,0.821540,-4.198981,-6.101093
98.368490,0.251400,-3.990080,-11.583412
98.401827,3.664307,-2.904270,-6.254327
98.435054,0.877357,-2.294475,-9.775575
98.468378,-0.127047,-10.451512,-0.573731
98.501222,-0.171640,-8.654600,-6.081938
98.537456,4.827332,-3.239770,-11.554680
98.568390,1.055731,-0.226559,-7.155477
98.601673,2.204690,-8.939969,-8.849285
98.635051,-0.297341,-3.153127,-12.078430
98.668430,0.135726,-6.952561,-9.118044
98.701446,2.404912,-3.532022,-9.774378
98.735071,0.593185,-0.019753,-5.497134
98.768557,4.789622,3.164499,-19.308878
98.801575,2.507417,-3.048077,-9.817774
98.835046,2.246141,0.608598,-7.626403
98.868404,5.547264,-4.866838,-4.384987
98.901384,1.425948,-1.647718,-1.968852
98.935045,0.611740,-5.049552,-6.187736
98.968403,1.228868,2.089315,-18.837353
99.001136,-0.002694,3.231988,-8.486850
99.035139,0.083650,-4.512782,-8.491938
99.068383,0.746569,-2.586728,-2.409850
99.101145,1.395271,-4.337700,-17.521244
99.135072,-2.106973,-10.551324,-7.509532
99.168199,0.583009,-5.582729,-17.244853
99.201111,0.515370,3.976911,-1.221086
99.235070,-1.451237,-2.222198,1.841955
99.268128,-4.074777,-1.057676,-4.914574
99.301736,8.012183,-9.718412,-17.728050
