time_tick,gyr_X_value,gyr_Y_value,gyr_Z_value
0.002477,0.097039,-0.017310,0.069332
0.052483,0.093760,-0.007688,0.029852
0.072483,0.088389,0.000865,0.004258
0.112482,0.092664,0.000853,0.009599
0.142482,0.093705,-0.008746,0.012751
0.172480,0.088276,-0.001250,-0.031013
0.212478,0.093691,-0.018344,0.019109
0.242477,0.091558,-0.023672,0.024423
0.262454,0.090402,-0.022587,-0.007625
0.302476,0.095883,-0.033292,0.057491
0.352447,0.093744,-0.025819,0.045780
0.372446,0.095920,-0.029032,0.064994
0.412445,0.093888,-0.026910,0.094923
0.442444,0.098058,-0.031172,0.070324
0.482469,0.095987,-0.036510,0.095938
0.502441,0.098061,-0.037572,0.078836
0.542455,0.096951,-0.039695,0.066004
0.572480,0.095840,-0.030085,0.039345
0.612471,0.091532,-0.019401,0.010556
0.642448,0.091535,-0.013001,0.004181
0.672477,0.090466,-0.008731,-0.002206
0.702476,0.093677,-0.007674,0.002072
0.732474,0.090539,-0.009810,0.023431
0.772474,0.095876,-0.020491,0.040466
0.802473,0.095918,-0.026898,0.061800
0.842457,0.096985,-0.035434,0.072438
0.872454,0.095891,-0.036494,0.063884
0.902453,0.095861,-0.032222,0.048949
0.932453,0.094731,-0.029009,0.023324
0.982465,0.092626,-0.023675,0.025491
1.012457,0.093714,-0.022614,0.031907
1.042463,0.093760,-0.025822,0.051122
1.082464,0.087359,-0.025805,0.046850
1.112463,0.055440,-0.019337,0.046893
1.142462,0.095861,-0.019422,0.034061
1.172461,0.102284,-0.020509,0.046875
1.202435,0.125720,-0.022697,0.053269
1.252465,0.094868,-0.016231,0.054380
1.282453,0.092761,-0.016230,0.061860
1.312452,0.093798,-0.015161,0.051181
1.342451,0.092737,-0.006626,0.042680
1.372449,0.092742,-0.002360,0.039498
1.412453,0.091656,-0.001288,0.030957
1.442452,0.092711,-0.001288,0.027751
1.472452,0.092722,-0.005557,0.036275
1.502450,0.093827,-0.014100,0.059734
1.542449,0.092772,-0.013032,0.061877
1.572448,0.095938,-0.018368,0.058642
1.602447,0.093807,-0.022630,0.062893
1.632446,0.095902,-0.026896,0.056458
1.672445,0.098031,-0.033300,0.063901
1.702444,0.098008,-0.035430,0.058547
1.732444,0.093735,-0.031151,0.048956
1.772418,0.093686,-0.027943,0.028673
1.802416,0.094666,-0.024731,-0.003364
1.842439,0.090384,-0.025784,-0.009779
1.882438,0.092565,-0.037531,0.021141
1.902438,0.094673,-0.042866,0.020043
1.942436,0.095729,-0.046067,0.021093
1.972436,0.096974,-0.050366,0.086246
2.012408,0.097988,-0.043960,0.061706
2.042407,0.102333,-0.050384,0.097997
2.072405,0.106651,-0.061070,0.129992
2.102404,0.094978,-0.052517,0.133247
2.142430,0.104329,-0.062100,0.066947
2.182430,0.090350,-0.048179,0.005056
2.212428,0.099000,-0.047154,0.047798
2.242428,0.096929,-0.038625,0.057462
2.272426,0.090353,-0.011912,-0.036415
2.302408,0.087137,0.003032,-0.060906
2.332426,0.087163,0.004094,-0.053421
2.362409,0.092571,-0.005532,-0.013942
2.402423,0.099209,-0.031188,0.099172
2.452397,0.102453,-0.047204,0.134343
2.482404,0.100229,-0.050384,0.106546
2.512403,0.096955,-0.037563,0.064947
2.542394,0.094793,-0.026886,0.041500
2.572402,0.092621,-0.021540,0.021229
2.602417,0.091564,-0.013006,0.013797
2.632416,0.093734,-0.014084,0.028749
2.672415,0.097020,-0.016240,0.061859
2.712413,0.097083,-0.017317,0.084290
2.742412,0.095964,-0.018372,0.067189
2.772412,0.093702,-0.015145,0.019127
2.802411,0.094749,-0.018345,0.016972
2.852394,0.090534,-0.014076,0.026613
2.882403,0.091373,-0.004441,-0.059880
2.912402,0.080476,0.007359,-0.157043
2.942399,0.078224,0.019117,-0.211469
2.972391,0.083543,0.009506,-0.201907
3.002380,0.079177,0.005267,-0.232915
3.052403,0.070252,-0.073756,0.078644
3.082404,0.105430,-0.052508,0.068068
3.112402,0.094317,-0.055782,0.272129
3.142401,0.124169,-0.041989,0.268993
3.172400,0.091899,-0.013062,0.125985
3.202399,0.087588,0.002957,0.089746
3.242398,0.095924,0.030702,-0.003059
3.272397,0.091820,0.027485,0.052484
3.302395,0.095393,0.023148,0.183880
3.352369,0.106140,0.006041,0.237207
3.382368,0.098622,0.016735,0.203077
3.412389,0.094344,0.016748,0.196667
3.442365,0.097508,0.013546,0.190238
3.472364,0.099644,0.014607,0.191312
3.512391,0.091072,0.021035,0.165706
3.542389,0.088817,0.031728,0.111274
3.572388,0.093002,0.037064,0.080316
3.612388,0.081206,0.060571,0.024888
3.642386,0.082296,0.073365,0.018548
3.672386,0.080230,0.072292,0.040980
3.702385,0.084538,0.068008,0.062325
3.742384,0.089956,0.058380,0.105009
3.782366,0.096470,0.034878,0.174328
3.812365,0.097523,0.012477,0.196643
3.842364,0.098608,0.001804,0.215816
3.872364,0.099663,0.001803,0.212611
3.922376,0.096331,-0.005633,0.175174
3.952375,0.098348,-0.019486,0.153728
3.982374,0.100385,-0.039743,0.146137
4.012373,0.099274,-0.054666,0.148192
4.042363,0.101178,-0.058900,0.077650
4.072370,0.094580,-0.042851,-0.010943
4.102364,0.092398,-0.033237,-0.039738
4.142373,0.090273,-0.037499,-0.033350
4.172371,0.094646,-0.038595,0.006176
4.222371,0.095846,-0.049287,0.063814
4.252365,0.100159,-0.050372,0.083039
4.282362,0.099117,-0.049307,0.089456
4.312360,0.088501,-0.019421,0.065049
4.342359,0.091649,-0.001287,0.028820
4.372367,0.084095,0.007281,-0.014938
4.412365,0.083006,0.004087,-0.019230
4.442364,0.090355,-0.006579,-0.041728
4.472350,0.084841,-0.035336,-0.071801
4.502363,0.092043,-0.045978,-0.143449
4.542351,0.096349,-0.059862,-0.111472
4.582348,0.088707,-0.068347,-0.164940
4.612360,0.118763,-0.059922,-0.093314
4.642341,0.105977,-0.079092,-0.074184
4.672348,0.081723,-0.081209,0.007013
4.712357,0.107326,-0.066341,0.006021
4.742355,0.070573,-0.025809,0.130194
4.772356,0.107397,-0.038794,0.353423
4.812354,0.133257,-0.032503,0.448545
4.842353,0.121724,-0.064507,0.545602
4.882352,0.129673,-0.108340,0.762257
4.912351,0.131725,-0.142466,0.775959
4.942351,0.140419,-0.140381,0.832597
4.972350,0.134965,-0.171281,0.824949
5.022347,0.103290,-0.099611,0.474894
5.032347,0.086239,-0.091037,0.459987
5.072344,0.086020,-0.050466,0.339474
5.112346,0.101731,-0.038725,0.239099
5.132342,0.089250,-0.029146,0.326769
5.172344,0.030142,0.007345,0.101537
5.212343,0.035910,0.127969,-0.246120
5.242342,0.018438,0.123814,-0.387176
5.272341,0.012347,0.138712,-0.304821
5.302312,0.012890,0.130088,-0.113614
5.332315,0.070549,0.073397,0.006797
5.362318,0.070354,0.067921,0.303800
5.402338,0.055880,-0.020652,0.551201
5.452314,0.108213,-0.075198,0.668419
5.482313,0.087776,-0.136985,0.671290
5.512311,0.116402,-0.150897,0.646632
5.542332,0.136366,-0.153031,0.560070
5.572341,0.048049,-0.053640,0.463407
5.612341,-0.069705,0.182467,-0.022487
5.642340,-0.036353,0.323312,-0.426668
5.672338,-0.060985,0.504553,-0.329504
5.712337,0.001469,0.445629,-0.027468
5.742337,0.074679,0.208528,0.518265
5.782336,0.128821,-0.117082,1.199211
5.812335,0.257728,-0.326455,1.467282
5.842334,0.244722,-0.549325,1.649836
5.882334,0.219018,-0.427640,1.458187
5.912318,0.167476,-0.365410,0.884777
5.942327,0.153861,-0.167905,0.375140
5.972313,0.024872,0.011615,0.114384
6.012330,-0.010877,0.141756,0.114039
6.042329,0.103211,0.121206,0.191897
6.082328,0.044231,0.016697,0.528971
6.102328,0.049672,0.001732,0.585516
6.142327,0.114184,-0.027142,0.473153
6.172326,0.029844,0.039220,0.320748
6.212324,0.127408,-0.023695,-0.093117
6.232321,0.170833,-0.188024,0.021364
6.272322,0.064547,-0.274217,0.184390
6.302322,0.081376,-0.183378,-0.346141
6.352316,0.047813,0.128611,-1.606274
6.382316,-0.053441,0.138456,-1.652140
6.412320,0.122940,0.130478,-1.409684
6.442312,0.014550,0.078419,-1.277455
6.472311,0.074143,0.149583,-1.015305
6.512316,-0.055064,0.264787,-0.562680
6.542315,0.005477,0.080314,-0.753895
6.572316,0.047334,0.204792,-0.431613
6.612314,0.101343,0.041516,-0.339567
6.642314,-0.017472,0.066246,-0.222941
6.672313,0.085143,0.056348,-0.077708
6.702311,0.132244,0.114869,-0.061371
6.732311,0.100336,0.073334,-0.001758
6.782283,0.125872,0.050879,0.018414
6.812309,0.117375,-0.003506,0.088635
6.832309,0.180440,0.041112,0.118783
6.872280,0.116550,-0.034478,0.204928
6.902307,0.138834,0.025219,0.110157
6.952305,0.144852,0.007133,0.007484
6.982304,0.051583,-0.008553,-0.187040
7.012304,0.107366,0.045829,-0.466692
7.042304,0.022137,0.111097,-0.559270
7.072303,0.092240,0.085367,-0.586139
7.102302,0.033543,0.073788,-0.618243
7.142301,0.117780,0.166379,-0.685067
7.172301,0.191685,0.224809,-0.606766
7.212280,0.101391,0.227111,-0.539418
7.252279,0.140660,0.249444,-0.607687
7.282288,0.167129,0.271634,-0.327634
7.312280,0.099238,0.168277,-0.123040
7.342296,0.114920,0.184114,0.117447
7.372287,0.169818,0.182826,0.318298
7.402294,0.193527,0.150725,0.450606
7.442293,0.134307,0.131592,0.608647
7.472293,0.125503,0.094325,0.556090
7.512291,0.068004,0.057121,0.598638
7.542291,0.115581,0.080536,0.458786
7.572290,0.140702,0.079484,0.315600
7.602289,0.077988,0.091341,0.337050
7.632275,0.023370,0.027515,0.305726
7.672288,0.132250,0.038958,0.384830
7.702287,0.101547,-0.016469,0.507406
7.742274,0.214797,0.069613,0.536700
7.772273,0.142203,-0.027260,0.585335
7.802258,0.094745,-0.018694,0.727499
7.852284,0.114978,-0.088075,0.809384
7.882282,0.121550,-0.079586,0.860716
7.912281,0.079749,-0.164782,0.867736
7.942251,0.147763,-0.136113,0.790948
7.972280,0.159478,-0.150007,0.807965
8.002279,0.191996,-0.160667,0.657245
8.042278,0.121736,-0.110376,0.603046
8.072277,0.146201,-0.126428,0.613637
8.102276,0.368367,-0.124735,0.489652
8.152274,0.131951,-0.240464,0.609808
8.182280,0.170995,-0.297028,0.558202
8.212270,0.111181,-0.298996,0.497303
8.242269,0.132531,-0.251052,0.460165
8.272274,0.233381,-0.237363,0.343754
8.312271,0.075399,-0.311609,0.296371
8.352255,0.253689,-0.241513,0.018913
8.372270,0.220300,-0.284043,-0.059311
8.412267,0.188117,-0.261530,-0.166026
8.442267,0.209037,-0.198581,-0.364419
8.472267,0.110737,-0.202570,-0.474469
8.502267,-0.034744,-0.189506,-0.360037
8.532265,0.100271,-0.167376,-0.455041
8.572265,0.095888,-0.082011,-0.595608
8.602264,0.174630,-0.037379,-0.663763
8.632264,0.049188,-0.061488,-0.925639
8.672237,0.002231,-0.107232,-0.908784
8.702235,0.124205,-0.005202,-0.829186
8.752249,0.069173,0.050334,-0.781855
8.782260,0.033224,0.055707,-0.703819
8.802259,0.011081,0.029054,-0.600320
8.842259,0.180512,0.125719,-0.667142
8.872258,0.139543,0.100119,-0.451443
8.902257,0.089525,0.175787,-0.175352
8.932257,0.112511,0.180966,0.027680
8.972256,0.139969,0.122098,0.376737
9.002255,0.147745,0.090027,0.521870
9.042236,0.098800,0.085865,0.537886
9.082238,0.157977,0.032471,0.449964
9.112234,0.153793,-0.020866,0.537286
9.142233,0.054600,-0.054748,0.518960
9.172232,0.080547,-0.118697,0.369017
9.212249,0.178786,-0.011230,0.338599
9.242248,0.136349,0.004841,0.370751
9.272248,0.154469,-0.006936,0.390983
9.312246,-0.032560,-0.148269,0.321869
9.342246,0.076864,-0.034340,0.107708
9.372246,0.017973,-0.069354,0.038079
9.402223,0.106000,-0.083362,-0.061386
9.452242,0.008824,-0.003095,-0.250040
9.472242,0.152995,-0.052383,-0.404204
9.502243,0.079667,-0.030907,-0.382699
9.532241,0.118370,0.055346,-0.358728
9.572227,0.059293,0.148190,-0.283411
9.602213,0.212509,0.069995,-0.228317
9.652239,0.157589,-0.027023,0.034005
9.682238,-0.018176,0.092680,0.222754
9.712236,0.180685,0.072005,0.164896
9.742236,0.132372,0.110405,0.342484
9.772235,0.123430,-0.080441,0.422640
9.802235,0.082080,0.000691,0.386768
9.832234,0.103816,-0.019522,0.201808
9.862216,0.172031,-0.022888,0.229553
9.912230,0.075492,0.022073,0.294999
9.952230,0.069597,-0.039688,0.176062
9.982210,-0.031036,-0.088439,0.049739
10.012228,0.153978,0.014654,-0.153815
10.042227,-0.050953,0.072624,-0.032711
10.072225,0.146652,0.006116,-0.101505
10.102224,0.138681,0.019911,0.065253
10.142225,0.128831,-0.072824,0.083978
10.172225,0.127884,-0.022707,0.065021
10.202223,0.127765,0.038114,-0.045765
10.242222,0.074971,0.098961,0.031512
10.272222,0.159037,0.002778,0.127125
10.302221,0.112367,-0.030214,0.225253
10.332220,0.045692,0.004004,0.320550
10.372220,0.158071,0.029256,0.485206
10.412219,0.080073,0.002809,0.425245
10.432218,0.129224,-0.105957,0.253681
10.472194,0.180527,-0.079438,0.288006
10.502193,0.008013,-0.114245,0.319909
10.552214,0.012194,-0.033174,0.199618
10.582218,0.160804,-0.126236,0.156332
10.612218,0.001895,-0.046008,0.330970
10.642218,0.093930,-0.109052,0.204523
10.672215,0.076328,-0.037626,0.288260
10.702216,0.159160,-0.076178,0.260249
10.742214,0.246676,-0.139343,0.403055
10.772213,0.198501,-0.151992,0.330341
10.802197,0.081374,-0.151727,0.328234
10.842189,0.219174,-0.052735,0.007137
10.882198,0.223058,-0.241485,0.101192
10.912196,0.408908,-0.039330,0.061658
10.942198,0.109770,-0.231559,-0.052585
10.972211,-0.014767,-0.132083,-0.155650
11.012207,0.115739,-0.097102,-0.348880
11.042205,0.078776,-0.049067,-0.303732
11.072205,0.059697,-0.054372,-0.268498
11.112187,0.052761,-0.056575,-0.093280
11.142185,0.139579,-0.070732,0.114972
11.172177,0.023004,-0.097226,0.328547
11.202200,0.031730,-0.167681,0.479880
11.232175,0.082195,-0.173198,0.627285
11.272175,0.124960,-0.231815,0.398302
11.312197,-0.055884,-0.281394,0.154462
11.342194,0.231822,-0.280837,-0.126609
11.362172,0.082667,-0.222885,-0.224554
11.402191,0.011107,-0.266247,-0.604080
11.452177,-0.055170,-0.070851,-0.919255
11.482175,0.190449,-0.042548,-1.064469
11.512190,0.087940,0.020490,-0.880323
11.542174,0.152053,0.038442,-0.824679
11.572189,0.243493,0.092483,-0.574383
11.602189,0.117796,0.129934,-0.281388
11.642189,0.043636,0.156707,-0.188267
11.682165,0.153986,0.107279,0.096715
11.702187,0.154152,0.158452,0.092722
11.742185,0.029905,0.077610,0.296384
11.782183,-0.189961,0.052417,0.504648
11.812184,0.047317,-0.002317,0.159177
11.842163,0.374154,0.247449,0.211759
11.872157,-0.009757,-0.138618,0.102881
11.912180,-0.236563,0.115591,0.157756
11.942181,0.507235,-0.168331,-0.376077
11.972178,0.170827,-0.077088,-0.109448
12.002178,-0.150019,-0.097640,-0.205646
12.042177,0.009680,-0.151332,-0.147214
12.072176,-0.015025,0.056588,-0.105463
12.102174,0.075366,0.030977,-0.468903
12.132174,0.112892,0.137343,-0.149925
12.172173,-0.007683,0.076856,-0.166256
12.212171,0.361643,0.106806,0.108416
12.242170,-0.040925,0.081062,0.106233
12.262171,-0.001131,0.148283,-0.194714
12.302155,-0.035958,0.121643,-0.060225
12.342167,0.044500,0.028736,-0.106699
12.382167,0.073658,0.108605,-0.062460
12.412166,0.073010,0.059470,0.133868
12.442166,0.068951,0.095713,0.158642
12.482147,0.026430,0.090465,0.187472
12.512151,0.056310,0.065853,0.238616
12.542136,0.080531,0.028508,0.192461
12.572144,0.176348,-0.007974,0.231771
12.612160,0.037165,0.017891,0.301396
12.642159,0.120011,0.026272,0.223425
12.682158,0.166881,-0.046372,0.314902
12.702143,0.125761,-0.029104,0.074603
12.742156,0.027233,0.007479,-0.159166
12.772155,0.239959,0.019837,-0.247832
12.802154,0.223952,0.044413,-0.288294
12.842151,0.018006,0.034109,-0.071404
12.872151,0.138433,-0.053649,0.068054
12.912145,0.108177,-0.033416,0.251948
12.952129,0.181565,0.009099,0.176303
12.972143,0.098704,-0.017412,0.270202
13.012142,0.154102,-0.043143,0.310649
13.042140,0.088089,-0.055794,0.325554
13.072130,0.105133,-0.071834,0.346831
13.102145,0.022762,-0.083319,0.231393
13.142142,0.113876,-0.088783,0.086030
13.172142,0.029134,-0.064130,0.203717
13.212141,0.017641,-0.138633,0.007781
13.242140,-0.180153,0.028174,-0.103443
13.272139,0.147729,-0.007580,-0.437079
13.302137,0.115487,-0.025767,-0.160439
13.332109,0.081089,-0.052303,-0.238574
13.372136,-0.020564,0.053436,-0.173861
13.402135,-0.013851,0.084301,-0.101037
13.442108,0.136228,0.076329,0.247202
13.472107,0.088469,0.064678,0.312326
13.502106,0.317105,-0.012592,0.307573
13.552130,0.144870,-0.084780,0.476034
13.572129,0.066612,-0.088783,0.302940
13.612128,0.149582,0.002778,0.169865
13.642127,0.141333,-0.041873,-0.044071
13.672126,0.088757,-0.005596,0.134575
13.702126,-0.138487,-0.002876,-0.020284
13.742125,0.061014,-0.017083,-0.227691
13.772124,0.241763,-0.133541,-0.533955
13.802123,0.221558,-0.012073,-0.311042
13.842101,0.203863,0.050835,-0.248721
13.882106,0.002639,0.028711,0.136921
13.912105,0.021116,-0.038419,-0.015175
13.942116,-0.021491,-0.072454,0.018839
13.972115,0.147570,-0.023904,0.240238
14.012116,0.131666,-0.056946,0.300963
14.042115,0.029854,-0.025849,0.399456
14.072114,0.090039,-0.100570,0.317828
14.112089,0.014458,-0.026801,0.237048
14.142089,0.210728,-0.127395,0.117849
14.172094,0.187872,-0.128504,0.309104
14.202084,0.223279,-0.136987,0.053686
14.232082,0.062204,-0.054440,-0.142420
14.272082,0.110414,-0.042689,-0.412688
14.312105,0.109081,0.015851,-0.214700
14.332104,0.237355,-0.034480,-0.343223
14.372101,0.076156,0.045604,0.133791
14.402100,0.040472,0.050041,-0.054226
14.452082,0.169578,-0.023896,0.122702
14.482077,0.235169,-0.113751,0.441663
14.512099,0.128150,-0.060261,0.553103
14.542081,0.160837,-0.078415,0.467518
14.572096,0.017580,-0.067505,0.616128
14.602095,0.214572,-0.149911,0.361334
14.642095,0.006257,-0.127103,0.459808
14.672094,0.171445,-0.159326,0.192475
14.712093,0.130896,-0.233888,0.249772
14.752091,0.127153,-0.297790,0.140439
14.772069,0.080051,-0.138706,-0.128997
14.812073,0.091379,-0.133335,-0.263597
14.842067,-0.018720,-0.121283,-0.421637
14.872066,0.173177,-0.026820,-0.450012
14.912086,0.035684,-0.038221,-0.484233
14.942085,0.165429,0.015913,-0.598292
14.972084,0.002282,0.049212,-0.361939
15.012083,0.211840,0.120065,-0.154318
15.042058,0.033371,0.186360,0.260653
15.082057,0.147711,0.041140,0.211747
15.112056,-0.061261,-0.035319,0.561832
15.142059,0.202384,-0.002778,0.386721
15.172053,-0.064198,0.108648,0.480353
15.212076,-0.319817,-0.128634,0.729130
15.242075,-0.180830,-0.033931,0.453954
15.272074,0.206703,-0.139158,0.209673
15.312073,0.138602,-0.209238,-0.050332
15.342071,0.015353,-0.149269,-0.032878
15.372071,0.041317,-0.372157,0.007561
15.402069,0.311786,-0.382195,-0.328056
15.432068,0.126659,-0.056637,-0.304854
15.472067,0.213394,-0.040738,-0.515274
15.502067,0.106041,-0.001234,-0.143206
15.542043,0.047334,-0.091571,-0.442859
15.572067,0.147664,0.035098,-0.508431
15.612078,0.285645,0.112552,-0.388370
15.652077,0.194675,-0.067436,-0.334846
15.672076,0.195103,-0.023774,-0.242718
15.702074,0.054690,0.138482,-0.031306
15.742074,0.197348,0.137272,-0.391419
15.772073,0.198635,0.126566,-0.304932
15.802071,0.076042,0.125624,0.002809
15.832070,0.091859,-0.022655,0.123795
15.862069,0.222372,0.095352,0.191726
15.902054,0.013416,0.076666,0.124360
15.932053,0.205502,0.159364,0.172850
15.982036,-0.113100,0.056478,0.566623
16.012063,0.071232,-0.063252,0.393899
16.042064,0.068140,-0.146289,0.169065
16.072062,0.010081,-0.134507,0.323003
16.102061,-0.019551,-0.074735,0.313722
16.132060,0.020132,-0.105631,0.090234
16.172035,-0.003837,-0.037395,0.184640
16.202057,0.083805,-0.004405,-0.098343
16.242055,0.198198,-0.133633,-0.148230
16.272055,-0.256457,-0.153941,-0.127932
16.302054,0.161736,-0.607657,-0.751303
16.342053,-0.394386,0.545510,0.288372
16.372031,-0.104356,0.145656,-0.884931
16.412049,0.708878,-0.184502,-0.932883
16.442049,0.132949,-0.021785,0.333209
16.472049,0.594632,0.294049,-0.172685
16.502047,0.031916,0.171844,-0.564280
16.542046,0.211015,-0.002466,-0.287481
16.572042,0.178114,0.030658,-0.290496
16.612028,0.055615,-0.065059,-0.196968
16.642039,-0.049790,0.004512,-0.276696
16.672031,0.431728,-0.084974,-0.442914
16.702037,0.298280,0.228465,0.141154
16.742020,0.058274,0.331305,0.230459
16.772018,0.158713,0.272353,0.417092
16.802037,0.218372,0.244479,0.460731
16.852017,0.245563,0.116497,0.445063
16.882017,0.030711,-0.024926,0.684741
16.912016,0.140057,0.094350,0.438556
16.942029,0.101056,0.082814,0.228014
16.972012,-0.033709,0.106510,0.353187
17.002028,0.110623,0.103062,0.199274
17.042028,-0.054079,-0.110850,0.203480
17.072027,0.068992,0.524339,0.029577
17.102026,0.038475,-0.031936,-0.270506
17.152010,0.077839,-0.092820,-0.209948
17.182017,0.088357,0.045671,-0.058535
17.212011,0.272945,-0.084769,-0.133020
17.242015,0.210557,0.017527,0.247930
17.272014,0.276016,-0.132931,0.237471
17.312018,0.318866,-0.085070,0.268709
17.342017,0.145823,-0.019696,0.363135
17.372017,0.175452,0.086936,0.177801
17.412008,-0.019536,-0.024604,0.260575
17.441988,0.072501,0.064713,0.313398
17.482013,0.112610,0.008146,0.261792
17.502011,0.010534,-0.227209,0.226331
17.542011,0.103012,-0.105790,0.033585
17.572009,0.146005,-0.066486,0.122473
17.602008,0.204316,-0.136802,-0.234794
17.641983,0.064470,-0.275096,-0.195988
17.671982,0.207440,-0.290400,-0.079643
17.701982,0.143211,-0.109038,-0.049783
17.741978,0.112098,0.283261,0.126541
17.782001,0.062391,-0.126114,0.359364
17.812001,0.196032,-0.129530,0.190496
17.842000,0.002949,-0.086543,0.374554
17.871998,0.024224,-0.191123,0.489369
17.901997,0.349407,-0.567941,0.006411
17.931996,0.125185,-0.023849,0.231696
17.961992,0.154476,-0.192191,-0.102597
18.001993,0.208773,-0.252938,-0.389292
18.051982,-0.101607,-0.217300,0.100334
18.081983,0.191490,-0.106898,-0.285913
18.111979,0.324288,-0.131682,-0.355531
18.141978,-0.049580,-0.109833,0.282551
18.171972,0.044501,-0.052332,-0.012051
18.201985,-0.028252,-0.179046,0.018255
18.231963,-0.250770,-0.202014,0.049167
18.271959,0.086447,-0.164147,-0.452883
18.301958,-0.137431,0.029298,-0.416507
18.351981,0.202301,0.104429,-0.832876
18.371980,0.114489,0.081068,-0.618222
18.401979,0.046085,0.142066,-0.776003
18.431977,-0.133257,0.314999,-0.421349
18.471976,-0.009898,0.477599,0.050708
18.501976,0.426267,-0.064847,-0.156454
18.541946,-0.214040,0.688865,0.612862
18.571945,-0.736545,1.003776,-0.014608
18.601944,0.620600,0.322723,-0.067824
18.641970,0.199769,-0.033801,0.616270
18.681969,0.767610,0.118817,-0.160867
18.711968,0.984100,0.608598,0.097136
18.741967,0.397544,0.191934,0.264871
18.771966,0.632879,0.041539,1.516228
18.811964,-0.586267,0.145081,0.322544
18.841963,0.223653,0.118955,-0.119067
18.871962,0.227654,0.207715,1.470226
18.911946,-0.079444,-0.006639,0.856890
18.941945,0.098940,-0.197721,0.558765
18.981961,0.454589,-0.065191,0.413029
19.011961,0.653643,-0.155057,0.144303
19.041957,-0.114869,-0.164206,0.587848
19.071953,0.367886,-0.197189,0.413393
19.111953,0.481564,0.067850,0.733225
19.141952,0.375268,-0.278087,0.127666
19.171952,-0.025869,-0.252869,0.544601
19.211929,0.078083,-0.346015,0.877425
19.241923,-0.280655,-0.382555,0.946760
19.271923,0.358357,-0.605192,-0.161544
19.301921,0.091677,-0.414098,0.518044
19.351927,0.104313,-0.362728,0.055678
19.371943,0.642688,-0.651532,-0.448215
19.411942,0.160399,-0.420398,0.007267
19.441940,0.235925,-0.381981,-0.416720
19.461941,0.055603,-0.534048,-0.367295
19.501938,0.009028,-0.434611,-0.747110
19.551936,0.201518,-0.221846,-0.715001
19.581936,-0.234501,-0.201749,-0.563065
19.601935,0.051965,-0.052000,-0.720443
19.641933,0.089150,-0.039446,-0.406254
19.671933,0.180918,0.029649,-0.419786
19.701929,0.172364,-0.048194,-0.341146
19.741930,0.255711,-0.072072,0.141649
19.771928,-0.100702,-0.037181,0.193212
19.801926,-0.121694,-0.097809,0.009107
19.851909,-0.027639,0.120415,0.230388
19.881898,0.140439,-0.077100,0.054034
19.911906,0.148433,-0.030273,0.180369
19.941902,0.124839,-0.142019,-0.102314
19.971904,-0.034483,0.001212,-0.138885
20.001912,0.106221,-0.065090,-0.364729
20.031911,-0.122739,-0.033634,-0.414720
20.071917,0.060707,0.090704,-0.455750
20.101916,0.002364,0.047065,-0.332034
20.151896,0.190162,0.121244,-0.283590
20.181895,0.238012,0.161506,0.004037
20.211894,0.093114,0.120247,0.020940
20.241909,0.031268,0.128934,-0.019600
20.271891,0.283683,0.116620,0.018737
20.301902,0.216546,0.100781,0.017598
20.331907,0.111104,0.091424,0.017572
20.371903,0.262232,0.117586,0.321123
20.411904,0.170229,0.090131,0.207737
20.441903,0.207788,0.146532,0.240092
20.471903,0.205236,0.094165,0.515468
20.501900,0.096950,-0.059071,0.444133
20.541899,0.037797,-0.023640,0.205006
20.571898,0.059679,-0.116412,0.153205
20.611925,0.005832,-0.122590,-0.043414
20.641923,0.004548,-0.146018,-0.089486
20.671922,0.057928,-0.146162,-0.041419
20.701922,0.074793,-0.109905,-0.140591
20.751925,0.119803,-0.025786,-0.141207
20.781923,0.124173,0.073388,-0.219730
20.811922,-0.034245,-0.231365,0.211361
20.841920,0.016317,-0.249523,0.049911
20.871920,-0.188956,-0.153095,0.012025
20.911894,0.121856,-0.078046,-0.106236
20.941916,0.162525,-0.145373,0.041901
20.971915,-0.023813,-0.087351,-0.028255
21.001914,0.177444,-0.037498,-0.435113
21.051892,0.128918,0.088231,-0.074338
21.081912,0.173217,-0.050294,-0.409539
21.111912,0.048875,0.070308,-0.116088
21.141910,0.183027,-0.035420,-0.350694
21.171887,-0.001644,0.081167,-0.288039
21.211907,0.139189,0.121337,-0.238702
21.241904,-0.093945,0.111188,-0.211991
21.271904,-0.034496,0.129216,-0.292041
21.301902,0.083701,0.075614,-0.226119
21.341880,0.165593,0.044336,0.134831
21.371889,0.151087,0.142438,0.154606
21.401874,0.226780,0.034691,-0.043670
21.431873,-0.245597,-0.110616,0.604201
21.471887,0.440205,-0.482685,-0.350009
21.511888,-0.003555,0.105144,0.824364
21.541888,0.299576,-0.019047,0.506276
21.571886,-0.027449,0.098875,0.674751
21.611891,0.203967,-0.079493,0.293342
21.651890,0.135541,-0.301163,0.456683
21.681888,0.344479,-0.105404,0.312399
21.711888,0.147352,-0.186895,0.001075
21.741885,0.196036,-0.147489,-0.142963
21.771884,0.164304,-0.252879,-0.305941
21.801883,0.027377,-0.030770,-0.422219
21.841882,-0.076425,0.054709,-0.340521
21.871880,0.170528,0.000830,-0.300274
21.911854,-0.009667,0.100129,0.211040
21.931877,0.151137,0.204297,0.099386
21.971851,0.271576,0.138938,0.216529
22.011853,0.096871,0.018810,0.327030
22.041851,0.143842,0.084819,0.291054
22.071865,0.067304,0.024170,0.402928
22.111872,0.093449,-0.002478,0.275628
22.141870,0.123117,-0.016388,0.243490
22.171868,0.235820,-0.039016,0.216628
22.211867,0.170041,-0.114466,0.027110
22.241867,0.146715,-0.135763,0.084696
22.271864,-0.021225,-0.129033,0.173455
22.301864,0.116194,-0.056819,0.111849
22.331862,-0.051547,-0.040521,0.256221
22.371861,0.028863,-0.102486,0.157562
22.401861,-0.051953,-0.087387,0.174760
22.441850,0.207624,-0.146428,-0.185698
22.471849,-0.024473,-0.206709,-0.110114
22.521844,0.117084,-0.124885,-0.222955
22.551854,0.163431,-0.033522,0.214538
22.581852,-0.111839,-0.052009,0.046753
22.611851,0.042566,-0.130053,-0.212281
22.641851,0.169787,0.048604,0.108142
22.671849,0.185754,-0.138818,-0.386523
22.701847,-0.023381,-0.029822,0.048991
22.741846,0.279830,-0.063532,0.008132
22.771845,-0.001481,-0.000103,0.216898
22.801843,0.146524,-0.006663,-0.129356
22.851839,0.053374,-0.051344,0.105483
22.871819,0.008935,-0.105516,-0.093538
22.911816,0.223133,0.037974,-0.198579
22.931815,0.028049,-0.100217,-0.117020
22.971814,0.095696,-0.119488,-0.260316
23.011836,0.107722,0.150130,-0.113526
23.041833,0.150825,0.160790,-0.310075
23.071832,0.125391,0.209720,0.028903
23.111816,0.002446,0.013809,0.089826
23.141820,0.000771,0.091606,0.151157
23.171830,0.075967,0.077636,0.033531
23.201828,0.084589,0.055199,0.094308
23.231803,-0.115544,-0.043558,0.222029
23.271797,0.219593,0.099732,-0.030489
23.311805,0.176633,-0.123048,0.105060
23.331799,0.053424,-0.035352,0.103434
23.371813,0.082977,0.143653,0.164245
23.411816,0.244425,0.038993,-0.200715
23.451799,0.098852,-0.048196,-0.000288
23.481815,0.020150,-0.089634,0.077500
23.511815,0.067911,0.014819,-0.095028
23.541813,0.019914,-0.038393,-0.061118
23.571812,0.180214,0.017683,0.070573
23.601812,0.115817,0.077647,-0.170555
23.641809,0.063626,-0.089527,-0.338142
23.671809,-0.008330,-0.047838,-0.237460
23.711808,-0.037762,0.049234,-0.223029
23.751782,0.113034,-0.013083,0.072557
23.771804,0.095641,0.059374,0.224681
23.801802,0.266441,0.068692,0.005657
23.841802,0.023867,0.144768,0.335219
23.871801,0.228587,-0.040103,0.291416
23.901800,0.100339,0.068717,0.716225
23.941797,0.119267,-0.113340,0.137180
23.971797,0.031920,-0.017310,0.368517
24.001795,0.121969,-0.036639,0.239106
24.041770,-0.002686,-0.198306,0.044855
24.081776,0.068467,-0.100301,-0.130920
24.111765,0.265890,-0.133711,-0.298900
24.141767,-0.003236,-0.084079,-0.271851
24.171765,0.100384,-0.042592,-0.562270
24.211787,0.093867,-0.010731,-0.286430
24.241785,0.064321,0.041559,-0.258355
24.271785,0.076566,0.117179,-0.168191
24.311782,0.285721,0.247658,0.191480
24.341781,-0.009907,0.158662,0.418644
24.371780,0.148600,0.124194,0.412006
24.401756,0.282503,0.103667,0.350959
24.431777,0.116299,-0.043144,0.486955
24.471776,0.057568,0.025284,0.350581
24.501776,0.139084,-0.011090,0.236037
24.541765,0.152571,-0.043063,0.154654
24.571762,0.117140,0.224629,0.100574
24.621771,0.231461,-0.132683,-0.063824
24.651769,0.112670,-0.069557,0.016686
24.671769,-0.022098,-0.118220,-0.130997
24.701767,0.053912,0.013810,-0.146316
24.741766,0.010689,-0.090524,-0.236631
24.771764,-0.034614,-0.056367,-0.115696
24.801763,0.053585,-0.033070,-0.201066
24.831762,0.118868,0.023087,0.200970
24.861761,0.226522,0.056960,0.200062
24.911734,0.070257,0.059404,0.281316
24.951733,0.099340,-0.109078,0.233370
24.981733,-0.068959,-0.117221,0.219476
25.011731,0.134968,-0.098222,-0.326453
25.041729,0.273144,-0.090135,-0.060394
25.071741,0.008067,0.007348,0.196636
25.101750,-0.149354,0.024918,-0.125906
25.141740,0.381226,-0.006025,-0.332416
25.171730,0.315633,-0.079548,-0.106290
25.211722,-0.019238,-0.043679,0.026476
25.241745,0.373086,0.072866,-0.297790
25.271743,0.252531,0.033534,0.023630
25.301742,0.110022,-0.025906,0.148348
25.331741,-0.041672,-0.063883,0.025302
25.371729,0.158697,0.077502,-0.073336
25.401739,0.158559,0.018858,-0.051220
25.441728,-0.089684,0.077935,0.183157
25.471711,0.243737,0.083559,0.229053
25.501726,0.017560,-0.089727,0.279440
25.551732,-0.116062,-0.146940,0.169106
25.581744,-0.001278,-0.126897,0.076232
25.611744,0.205693,0.047505,0.010897
25.641742,0.060162,0.018977,0.157154
25.671741,0.115373,-0.092057,0.234529
25.711739,0.100435,-0.074612,0.152390
25.741737,-0.106361,-0.056313,0.103357
25.771737,0.107971,-0.106808,-0.087158
25.801736,-0.076204,0.037430,0.109207
25.851730,0.258607,0.157307,-0.224643
25.881709,0.204462,0.009134,0.000002
25.901707,0.060216,-0.052500,0.258265
25.941707,0.071387,-0.207106,0.257413
25.971705,0.125039,0.029509,0.120869
26.011727,0.206474,-0.013426,0.342854
26.041725,0.245514,-0.079590,0.300811
26.071725,0.278122,0.000228,0.430526
26.111698,0.125462,-0.115630,0.430994
26.141697,0.016642,-0.245310,0.153575
26.171721,-0.043998,-0.241807,-0.189368
26.201720,0.133538,-0.279320,-0.593496
26.231718,0.136983,-0.320970,-0.461236
26.271694,0.105318,-0.099074,-0.626689
26.311713,0.210068,0.048718,-0.307500
26.341705,0.134409,-0.032170,-0.234202
26.361713,0.203509,-0.036574,-0.265228
26.401702,0.041534,-0.103563,0.123363
26.451710,0.142395,-0.021608,-0.068534
26.481708,0.074344,-0.022537,-0.036469
26.511683,0.177964,0.090242,-0.054038
26.541707,0.160818,0.106299,-0.109506
26.571676,-0.032697,0.197359,-0.126055
26.601701,0.116969,0.144831,-0.219335
26.641702,0.085062,0.266324,0.006786
26.671701,0.194479,0.206384,-0.007460
26.701699,0.132584,0.277840,0.218394
26.751679,0.201830,0.169942,0.356685
26.771671,0.195241,0.112389,0.356370
26.811697,0.261694,0.153943,0.099083
26.841701,-0.019396,0.082041,0.183163
26.871668,0.229129,0.046383,0.016227
26.911691,0.248947,0.111299,0.158685
26.941680,0.040523,-0.026769,0.052198
26.971689,0.048255,-0.070566,0.196198
27.011683,0.309906,-0.079644,0.114883
27.041685,-0.204064,0.150452,0.659049
27.071684,0.057382,-0.042778,0.011504
27.111658,0.265724,0.023661,0.530025
27.141657,0.280371,-0.002997,0.474315
27.171656,0.136913,-0.062279,0.281700
27.211679,0.207126,-0.176388,0.038514
27.241677,0.084535,-0.162221,-0.026555
27.271677,-0.013339,-0.134280,-0.031720
27.311674,0.219175,-0.205096,-0.171065
27.341648,0.034491,-0.074815,0.227163
27.371673,0.066744,-0.220899,0.145149
27.401672,-0.135767,-0.030713,0.209282
27.431670,0.183564,-0.191070,-0.346208
27.471668,-0.163605,-0.136227,0.280296
27.501668,0.068238,-0.202489,-0.444542
27.541656,0.238189,-0.092045,-0.353156
27.571655,0.186246,-0.133566,-0.228361
27.601635,-0.082341,-0.029623,-0.084552
27.631651,0.044687,0.141774,-0.175528
27.671660,0.207023,0.098659,0.040026
27.711659,0.084861,0.029728,-0.140894
27.741657,-0.109557,0.010895,0.024661
27.771656,-0.124365,0.073672,0.340206
27.801655,0.199967,0.010250,-0.080126
27.841654,0.141748,0.131752,0.248574
27.871652,0.159892,0.019702,0.393265
27.911648,0.057333,0.091283,0.550747
27.951619,0.274342,-0.051935,0.295614
27.981623,0.072850,-0.068681,0.585123
28.011622,0.171684,-0.045230,0.139679
28.041620,0.266473,-0.355678,0.153977
28.071619,-0.228192,0.984069,0.877330
28.101618,0.649773,0.044883,-1.025633
28.131616,-0.268939,-0.156794,1.396753
28.191614,-3.577480,1.377499,-1.229927
28.211625,1.149702,0.153549,1.171607
28.241637,1.446496,0.106149,-1.353504
28.271635,-0.336220,0.570869,0.482958
28.301634,0.572053,-0.168105,-1.131495
28.341634,-1.458173,0.115026,0.396311
28.371632,1.910237,0.170093,0.900127
28.411612,0.010181,0.601505,1.634848
28.441617,0.397155,-0.095831,0.113704
28.471602,0.058315,0.317256,0.616097
28.501618,-0.218219,0.007600,0.720238
28.551624,-0.191564,-0.143586,0.196922
28.571624,-0.427443,0.003000,0.191373
28.611622,-0.135404,-0.142426,-0.250771
28.641596,-0.227030,-0.138293,0.436296
28.671620,-0.321220,0.628596,0.091146
28.701619,-0.149371,-0.030197,-0.779041
28.741616,0.311188,0.067520,0.016324
28.771616,0.269196,-0.113645,0.070898
28.801614,0.464891,-0.038665,0.622591
28.851613,0.118407,-0.278708,0.398045
28.871610,-0.268054,0.291241,0.815834
28.911610,0.259006,-0.411669,-0.852822
28.941589,0.030378,-0.122830,0.331610
28.971582,0.131679,-0.159175,0.068544
29.011605,0.473498,-0.195869,-0.587776
29.031580,0.202177,-0.073861,-0.311377
29.071604,-0.094330,-0.318972,0.871204
29.111576,0.523065,-0.427197,-0.833737
29.141575,0.128594,-0.054651,-0.016358
29.171574,0.411567,-0.151424,0.368758
29.201569,-0.054938,0.005387,0.136806
29.231597,0.217771,-0.066368,-0.445966
29.271596,-0.142931,-0.335642,0.304838
29.311593,-0.058220,0.189770,0.248941
29.341592,0.181188,-0.120623,-0.510363
29.371590,0.091017,-0.052382,-0.123183
29.401563,0.280295,-0.048501,-0.209752
29.451582,0.070758,0.094696,0.051790
29.481587,0.122330,0.090412,-0.143775
29.511585,-0.227825,-0.117719,-0.208943
29.541585,-0.039728,0.057570,0.177691
29.571583,0.118358,0.084865,0.314567
29.601582,0.099228,0.072102,0.341213
29.641580,0.286383,-0.034774,0.029658
29.671579,0.004102,-0.069493,0.384264
29.701578,0.140099,-0.116861,0.698100
29.751576,0.117097,-0.259464,0.293442
29.781550,0.284639,-0.333330,0.149822
29.811560,0.098855,-0.651765,0.346850
29.831547,0.849884,-0.160537,-0.450908
29.871551,0.103599,-0.128113,-0.100096
29.911569,0.172643,-0.245402,-0.374284
29.941567,0.122109,-0.251607,-0.531370
29.971567,-0.187760,-0.096410,-0.365900
30.021536,0.271364,0.051855,-0.464561
30.051545,0.203619,-0.099352,-0.511320
30.081537,0.180053,-0.159185,-0.133407
30.111536,0.039795,-0.218476,-0.323886
30.141545,0.237093,-0.052570,-0.409567
30.171534,0.213059,-0.276419,-0.353095
30.211556,0.506877,-0.366674,-0.264978
30.241555,0.205085,0.238368,-0.058572
30.271554,0.149609,0.167043,-0.011939
30.311552,0.295003,0.034525,-0.016976
30.351550,-0.056933,0.384934,0.096154
30.381549,-0.197597,0.093349,-0.315705
30.411549,-0.149082,0.386129,0.256452
30.441547,0.353507,0.017685,-0.727611
30.481518,0.060452,0.073504,-0.165222
30.511543,0.275224,0.137072,-0.341220
30.541524,0.169600,0.097703,-0.011256
30.571542,0.140001,0.178802,-0.034310
30.601534,0.089181,0.339764,0.230498
30.651559,-0.052343,0.100239,0.182202
30.681558,0.252098,0.133700,0.118206
30.711555,0.016326,0.239559,0.551572
30.741554,0.043071,0.203386,0.279977
30.771553,0.109300,0.226668,0.324965
30.801552,0.255111,0.186882,0.351423
30.841531,-0.064087,-0.060798,0.358685
30.861549,-0.083727,0.032125,0.092084
30.911546,0.038342,0.125606,0.213306
30.941544,0.101832,0.169261,0.030823
30.981521,0.010289,-0.052232,-0.059055
31.011524,0.096253,-0.087580,-0.111625
31.041518,0.166958,-0.014034,-0.408270
31.081540,-0.036205,0.043816,-0.052105
31.101515,0.252278,0.032510,-0.059715
31.141537,-0.041118,0.155587,0.310720
31.171537,0.193522,-0.096395,0.025067
31.211535,-0.164467,-0.004165,0.550275
31.241509,0.329682,0.030080,0.191342
31.271532,0.121913,0.160532,0.347036
31.301531,-0.050610,-0.129212,0.672434
31.331530,0.144345,-0.098560,0.316758
31.371529,0.171391,0.265940,0.391410
31.411525,0.065332,-0.103678,0.248367
31.441503,0.060396,0.040271,0.210694
31.471510,0.206208,0.015594,-0.135658
31.521522,0.130805,-0.121871,0.089050
31.551521,-0.018437,-0.136439,0.046267
31.581495,0.131320,-0.031288,0.155793
31.611518,-0.039039,-0.061838,0.190924
31.641517,0.040249,0.026436,0.254430
31.671515,0.165601,-0.080467,0.282661
31.701515,0.093802,-0.050538,0.449523
31.741513,0.268636,-0.108393,0.233334
31.771512,0.155022,-0.154056,0.391243
31.801510,0.169775,-0.276558,0.126655
31.851484,0.242507,-0.177574,0.121840
31.881483,-0.005357,-0.297413,-0.020866
31.911497,-0.010894,-0.007402,-0.073762
31.941504,0.193359,-0.194152,-0.627233
31.971503,0.058111,-0.099259,-0.034750
32.011502,-0.060883,-0.041432,-0.016240
32.041501,0.231761,-0.063223,-0.400008
32.071499,0.650204,-0.070566,-0.391600
32.121469,0.079395,0.000789,0.200857
32.141468,0.320646,-0.080575,-0.208870
32.171493,0.087836,0.044691,-0.231632
32.201492,0.154785,0.010428,-0.235042
32.231468,0.053763,-0.040567,-0.132725
32.271490,-0.032704,0.004291,0.096193
32.301490,-0.046308,0.052283,0.119966
32.341487,0.036436,0.029746,0.043962
32.371484,-0.006114,0.050103,0.033399
32.411485,0.031905,-0.003266,-0.008573
32.431476,-0.016270,0.035286,-0.140839
32.481482,0.104288,0.087242,-0.120282
32.511481,0.120185,0.059485,-0.112959
32.541480,0.154176,0.084847,0.186342
32.571455,0.174606,0.160503,0.165384
32.601478,0.174483,0.150923,0.135415
32.641467,0.244115,0.047228,0.397670
32.671446,-0.001604,0.055210,0.467223
32.711471,0.065895,0.031697,0.279028
32.731471,0.044705,-0.025874,0.381289
32.771469,0.369949,-0.094606,-0.083948
32.811468,-0.063647,-0.023538,0.462531
32.841448,0.267144,0.053817,-0.098066
32.871467,-0.357038,-0.091048,0.344698
32.911464,-0.238114,-0.091087,-0.120112
32.931440,0.078080,-0.212329,0.009499
32.971462,0.102540,-0.251847,0.045604
33.001461,0.118887,-0.157186,0.416877
33.041435,0.211857,-0.183943,0.205152
33.071456,0.113684,-0.171952,0.118696
33.101456,0.071915,-0.245244,-0.233222
33.131455,0.207847,-0.275359,-0.316760
33.171453,0.189211,-0.183669,-0.246801
33.201452,0.107561,-0.236875,-0.072915
33.241444,0.094336,-0.168504,-0.302255
33.271422,-0.014027,-0.123498,-0.274202
33.321447,0.190882,-0.057904,-0.190550
33.351445,0.206357,-0.110125,-0.295550
33.381444,0.240630,-0.051568,-0.296305
33.411444,0.091413,0.101155,-0.169351
33.441442,-0.207143,0.063497,-0.268855
33.481433,0.012479,0.125890,-0.246126
33.501439,-0.010012,0.107653,0.087140
33.541431,-0.048954,0.053441,-0.054186
33.571429,0.179629,0.132807,0.096849
33.621435,0.168814,0.033833,-0.199657
33.651433,0.181909,0.094552,-0.164067
33.681433,0.108665,0.203307,0.139992
33.711430,0.221443,0.246801,0.061138
33.741430,0.236429,0.194486,0.148461
33.771427,0.108742,0.080625,0.308135
33.811427,0.199334,0.262635,0.482205
33.841425,0.054801,0.028595,0.133702
33.871423,0.024295,0.119096,0.508169
33.921397,0.028990,0.113855,0.304063
33.941399,0.098322,-0.028015,0.154750
33.971399,0.228658,-0.083674,0.010170
34.001416,-0.033612,-0.078934,0.245321
34.031395,0.145926,-0.218833,-0.082441
34.071394,0.083424,-0.018383,0.146259
34.111414,0.127753,-0.113354,0.126494
34.141411,0.008478,-0.041613,0.035029
34.171411,0.123007,-0.058862,-0.099720
34.211404,-0.045025,-0.139584,0.060146
34.241387,0.086784,-0.108911,-0.048700
34.271385,0.124630,-0.104825,0.140431
34.301406,0.032670,-0.110062,0.371213
34.331404,0.294064,-0.020961,0.089566
34.371403,0.049170,0.026525,0.033256
34.411399,0.170890,-0.264835,0.129925
34.441380,0.227265,-0.192418,0.026668
34.461373,-0.049269,-0.084109,0.000618
34.521372,0.285900,-0.105986,-0.404530
34.551374,0.047045,-0.003163,-0.286377
34.581393,0.089671,0.250431,-0.213406
34.611375,0.153208,0.151143,-0.213967
34.641390,0.238124,0.195621,0.002087
34.671372,0.070587,0.156417,0.278644
34.711388,0.136248,-0.030343,0.378037
34.741386,0.096069,0.192639,0.212592
34.771385,0.315619,-0.048787,0.209076
34.801385,0.067339,0.069857,0.717307
34.841382,0.360296,-0.139549,0.300454
34.881381,0.107298,-0.057978,0.342633
34.911378,0.258467,-0.271477,0.227098
34.941379,0.027014,-0.186796,0.349423
34.971357,0.508705,-0.206801,-0.195718
35.001350,0.142465,-0.093088,0.037919
35.041374,0.161057,-0.183879,0.307737
35.071371,0.225561,-0.011148,-0.041785
35.111368,0.043824,-0.352849,-0.244491
35.141369,0.109761,-0.216624,-0.072804
35.171360,0.169814,-0.127229,-0.033862
35.211366,-0.145089,-0.136162,0.063394
35.241365,0.100097,-0.117388,-0.215430
35.271363,-0.024741,-0.114038,0.048528
35.301362,0.110312,-0.150582,0.034405
35.341361,0.192713,-0.136794,-0.198464
35.371358,0.027662,-0.139619,-0.200577
35.411357,0.029941,-0.031914,-0.275846
35.441356,0.099164,-0.090740,-0.202462
35.481355,0.091742,-0.035261,-0.256647
35.511354,-0.075485,0.114287,-0.095516
35.541351,0.072069,0.038293,-0.155802
35.571351,0.172295,-0.069691,0.016671
35.601347,0.153838,0.015569,0.153908
35.641342,0.087930,-0.092927,-0.040065
35.661326,0.067355,0.080871,-0.001708
35.711342,-0.006111,-0.045899,0.146129
35.751340,0.109133,-0.142027,-0.013628
35.781339,-0.005187,-0.078945,0.137399
35.811337,0.036883,0.001047,-0.129287
35.841335,0.067608,0.028736,-0.212482
35.871318,0.033861,0.077826,-0.160918
35.911332,0.186914,0.083926,-0.258151
35.941332,0.006522,0.004405,-0.316243
35.971330,0.063711,0.061928,-0.485826
36.011312,0.266439,0.024067,-0.299101
36.041310,0.048292,0.144898,-0.041954
36.071325,0.172083,0.119148,-0.273981
36.101324,0.150674,0.167040,-0.011939
36.131323,0.314458,0.404398,0.005353
36.171322,-0.222674,-0.063826,0.738011
36.211320,0.059184,0.063940,-0.221903
36.241318,0.041533,0.280093,0.388314
36.271317,0.643128,-0.038612,-0.302740
36.311316,-0.113651,0.256231,1.928944
36.341314,0.444619,-0.536946,-0.590712
36.381313,-0.027471,0.493202,0.920528
36.411312,-0.074090,-0.204709,0.385676
36.441310,-0.017096,0.125392,0.901408
36.471310,0.012507,-0.150386,0.084648
36.501308,0.109410,0.086023,0.169264
36.541298,0.028565,-0.251772,0.231534
36.571304,0.080164,-0.078274,0.549810
36.601303,0.157922,-0.310467,-0.236806
36.651301,0.230223,-0.177453,-0.069412
36.681300,0.159972,-0.174098,-0.066171
36.711299,0.137772,-0.199674,0.017034
36.741297,0.173562,-0.209288,-0.109107
36.771296,0.002309,-0.017102,0.080040
36.811294,0.227710,-0.094182,-0.294399
36.841293,-0.005368,0.064912,0.265337
36.871292,0.073832,-0.041827,0.170707
36.911279,0.219957,-0.117933,0.344413
36.951274,0.093305,-0.090989,0.330701
36.981273,0.128647,-0.091819,-0.311458
37.011268,0.034497,-0.186467,-0.352558
37.041270,0.200752,-0.237002,-0.241755
37.071274,0.137508,-0.211189,-0.413621
37.111281,0.034086,-0.074572,-0.264329
37.141280,0.028438,0.051188,-0.163200
37.171278,0.036339,-0.024463,-0.281149
37.211254,-0.135474,0.083373,0.174650
37.241255,0.071830,0.077800,-0.281664
37.271260,0.101966,0.071279,-0.166313
37.301258,0.035381,0.029747,0.047168
37.341250,0.133958,0.121158,0.148082
37.371257,0.013137,0.134138,0.320205
37.401269,0.074675,0.167103,0.209251
37.441238,0.125329,0.129729,0.101119
37.471237,0.153187,0.140305,0.147114
37.521248,-0.075338,-0.045740,0.139735
37.551249,0.084056,0.011554,-0.033079
37.581248,0.038109,-0.020316,-0.050339
37.611235,0.017481,0.085222,0.049614
37.641256,0.131666,0.071056,0.152081
37.671245,0.136303,0.086983,0.260082
37.711239,0.051221,0.029558,0.359154
37.741254,0.134059,0.017673,0.302441
37.771252,0.150084,0.016561,0.321663
37.801251,0.083721,0.002726,0.576966
37.851250,0.185325,-0.003802,0.380308
37.881236,0.126880,-0.029290,0.448564
37.911235,0.047267,-0.044084,0.546800
37.941234,0.166119,-0.246782,0.293500
37.971219,0.097806,-0.241266,0.230507
38.001239,0.230003,-0.279818,-0.024031
38.031213,0.118829,-0.254961,-0.200164
38.071239,0.175682,-0.288050,-0.376656
38.101237,0.048370,-0.199304,-0.326989
38.151235,-0.019939,-0.078587,-0.522906
38.171234,0.000622,-0.138423,-0.342669
38.201232,0.087056,-0.103448,-0.320060
38.241231,0.014373,-0.031945,-0.141216
38.271229,0.143430,0.065862,-0.180242
38.301229,0.184288,0.031571,-0.007350
38.341202,0.146710,0.009131,0.270337
38.371201,0.100022,-0.029015,0.012638
38.401201,0.122918,-0.043914,-0.146650
38.451222,0.119473,-0.028931,-0.248071
38.471221,0.187300,0.024302,-0.415543
38.511220,0.066360,0.123704,-0.383983
38.541218,0.039466,0.219636,-0.231727
38.571216,0.172729,0.093615,-0.384174
38.601215,0.052128,0.200252,0.107935
38.641212,-0.001323,0.123606,0.125690
38.671212,0.143049,0.251179,0.188328
38.701211,0.293707,0.233685,0.385862
38.751201,0.109607,0.046347,0.637033
38.781200,0.117153,0.001689,0.364328
38.811199,0.065918,-0.023775,0.351378
38.841197,0.181679,-0.057054,0.291334
38.871196,0.258993,-0.015735,0.461428
38.901194,0.102325,-0.053758,0.454846
38.931200,0.216645,-0.096747,0.636221
38.971176,-0.039328,-0.121700,0.519682
39.021196,0.001240,-0.161101,0.245929
39.051195,0.221087,-0.135905,0.031254
39.081194,0.078077,-0.089660,-0.134069
39.111193,0.152759,-0.179279,-0.335451
39.141191,-0.011805,0.044843,-0.083091
39.171191,0.015934,-0.080923,-0.273975
39.211188,0.074898,0.171507,-0.077073
39.241161,-0.032015,-0.050942,-0.320812
39.271162,0.027330,0.041597,-0.166458
39.311184,0.118084,-0.011808,-0.376192
39.351181,0.045166,-0.046934,-0.151991
39.371180,0.117547,0.097975,-0.327508
39.411178,0.083044,0.078749,-0.093612
39.441178,0.162815,0.155209,0.145057
39.481155,0.107093,0.177793,-0.000117
39.511154,0.175727,0.213825,0.121870
39.541168,0.098126,0.080644,0.318822
39.571152,0.224018,0.095252,0.386186
39.611147,0.033842,0.054012,0.571917
39.641169,0.125234,0.004768,0.570556
39.671167,0.202700,0.104905,0.367012
39.711166,0.017919,0.021148,0.270433
39.741165,0.172168,-0.030377,0.284003
39.771163,0.134163,-0.183948,0.571654
39.811162,0.152340,-0.351296,0.436103
39.841159,0.204459,-0.149801,0.183972
39.871158,-0.060836,-0.074507,0.038070
39.921153,0.027995,-0.169542,-0.054362
39.951153,0.141884,-0.155925,-0.083163
39.981150,0.122435,-0.167568,-0.164425
40.001149,0.121540,-0.179328,-0.093971
40.031151,0.219743,-0.079321,-0.127635
40.081149,-0.038500,-0.102431,0.292202
40.111147,0.138607,-0.012077,0.077899
40.141146,0.026667,0.053266,-0.045658
40.171146,0.030209,0.166270,-0.061064
40.211143,0.083358,0.112830,-0.028248
40.241121,0.037190,0.150156,0.155744
40.281141,0.194264,0.191487,-0.062033
40.311138,0.161541,0.133913,0.100065
40.341137,0.072300,0.149906,0.502985
40.381119,0.011019,0.002939,0.476548
40.411118,0.066380,0.090108,0.729172
40.441116,0.066923,-0.028034,0.336396
40.471115,0.007599,-0.027950,0.436846
40.501114,-0.034230,-0.112074,0.433188
40.551128,0.147345,-0.205203,0.376005
40.581165,-0.013032,-0.191040,0.492583
40.611163,0.265015,-0.360944,0.028938
40.641162,0.176024,-0.214856,0.364192
40.671161,0.101224,-0.171976,0.224477
40.711159,0.165102,-0.248745,-0.044145
40.741156,0.009506,-0.235746,0.248722
40.771156,0.029828,-0.276166,-0.029305
40.801140,-0.019264,-0.218436,-0.134754
40.851154,0.012090,-0.158850,-0.044683
40.871121,0.072766,-0.168585,-0.038340
40.911133,0.054411,-0.248503,-0.030227
40.941144,0.081197,-0.252858,0.030645
40.971148,0.113950,-0.216622,-0.096311
41.011144,0.086992,-0.193039,-0.237212
41.041143,0.066839,-0.115138,-0.301956
41.071142,0.151278,-0.105606,-0.560492
41.111141,0.128150,-0.062936,-0.511102
41.141139,0.021502,-0.085067,-0.543252
41.171121,0.037594,-0.086190,-0.501592
41.201134,0.122393,0.024442,-0.401637
41.231107,0.211604,0.005078,-0.455188
41.271123,0.250334,0.097551,-0.073247
41.311119,0.289761,0.102791,-0.068954
41.341118,0.067683,0.053082,0.140244
41.371116,0.050438,0.056181,0.422340
41.421126,0.162671,0.032564,0.239476
41.441117,0.086952,0.011421,0.223351
41.481122,0.101013,-0.138874,0.115675
41.511121,0.060817,-0.104518,-0.191844
41.541120,0.257987,0.009142,-0.259648
41.571120,0.278129,0.013377,-0.293820
41.601118,0.355650,0.005770,-0.353714
41.641103,0.225507,-0.043139,-0.022728
41.671115,-0.046688,0.038479,0.008770
41.701103,0.133913,0.030672,-0.117394
41.751111,0.074472,0.029534,0.301451
41.781110,0.068579,-0.029202,0.535124
41.811108,0.323114,-0.014852,0.539416
41.841108,-0.036470,-0.129118,0.416000
41.871081,0.028817,-0.168612,0.219170
41.901105,0.185909,-0.230754,0.127972
41.941093,-0.007597,-0.231255,-0.134827
41.971092,0.112291,-0.260255,-0.243999
42.001100,-0.200062,-0.285089,-0.343428
42.041098,0.044389,-0.206808,-0.225525
42.081096,0.148106,-0.227205,-0.411574
42.111071,0.167283,-0.209116,-0.428575
42.141075,0.079788,-0.199289,-0.502224
42.171069,-0.037652,-0.115770,-0.705814
42.211091,0.194536,-0.104572,-0.694054
42.241089,-0.026026,-0.018889,-0.491591
42.271087,0.096913,0.025554,-0.378119
42.311063,0.038843,0.084271,-0.282689
42.341084,0.119814,0.091547,-0.274121
42.371082,0.077003,0.140573,-0.049463
42.401082,0.151208,0.076458,-0.084024
42.441080,0.314211,0.081584,-0.413122
42.471048,0.140397,0.214287,-0.654892
42.511076,0.124341,0.219495,-0.333252
42.541074,0.055377,0.131076,-0.148878
42.571055,0.105542,0.235478,-0.229519
42.601051,0.338934,0.230825,-0.508469
42.651070,0.060397,0.292009,-0.081749
42.681069,0.176910,0.240470,0.130564
42.711067,0.037050,0.280140,0.313523
42.741065,0.104068,0.294933,0.276192
42.771065,0.221298,0.224250,0.394375
42.801055,0.174734,0.072663,1.021809
42.841061,0.241542,0.074691,0.928848
42.871060,0.182910,-0.109352,0.407509
42.901058,0.084348,-0.177298,0.284285
42.951057,0.028290,-0.168350,-0.312924
42.981055,0.043457,-0.159718,-0.591749
43.011053,0.058233,-0.112796,-0.689793
43.041033,0.048826,-0.080803,-0.668246
43.071029,-0.058551,-0.015520,-0.690299
43.101031,0.074516,0.006585,-0.724400
43.141047,0.109714,0.053255,-0.402544
43.171046,0.118711,0.125515,0.029510
43.221039,0.039176,0.119241,0.143820
43.251022,0.089441,0.083891,0.259008
43.281024,0.062658,0.138379,0.140715
43.301022,-0.012246,0.063941,0.102927
43.331022,0.076362,0.043436,0.205366
43.371023,0.136758,-0.002519,0.160223
43.411035,0.058019,0.074451,0.088009
43.441033,0.172813,-0.038668,-0.202193
43.471031,0.117883,0.002984,-0.104721
43.511012,-0.099389,0.029085,-0.156881
43.541010,0.057515,0.044843,-0.401510
43.581025,0.020039,0.130122,-0.215119
43.611024,0.120304,0.079907,-0.452618
43.641023,0.111191,0.105451,-0.325328
43.671023,0.070090,0.192767,0.070493
43.701022,0.233228,0.033600,-0.022309
43.741018,0.181198,0.094320,0.310330
43.770988,0.205586,0.110282,0.258057
43.811015,0.170303,0.058118,0.269532
43.851014,-0.035432,0.094713,0.502707
43.871013,0.067806,0.099996,0.126612
43.911011,-0.007900,-0.004351,0.211534
43.941010,0.170909,0.022992,0.157150
43.971007,0.117080,0.001876,-0.016044
44.011006,0.109072,-0.001214,-0.197698
44.041005,0.010801,0.116219,-0.083772
44.071004,0.100177,0.005093,0.024579
44.101003,0.033760,0.049934,0.193658
44.140988,-0.006420,0.040379,0.298325
44.170987,0.049448,0.000878,0.155989
44.200984,0.090837,0.049875,0.053676
44.230996,0.095324,0.057294,0.121029
44.270995,0.038733,0.012647,0.119728
44.300993,0.146544,0.008093,0.215839
44.340991,0.215527,-0.049627,0.208026
44.370990,0.067133,0.008198,0.364375
44.410988,0.091435,-0.025960,0.341744
44.440986,0.101718,-0.166725,0.383706
44.480984,-0.019093,-0.103612,0.500545
44.510983,0.183354,-0.102851,0.192783
44.540982,0.058090,-0.024762,0.227433
44.570979,-0.067767,-0.151203,-0.054238
44.610954,0.127850,-0.150529,-0.153648
44.640949,-0.023909,-0.133027,-0.362935
44.670952,-0.035724,-0.090316,-0.447106
44.710972,0.051748,-0.081115,-0.047471
44.750972,0.296101,0.019583,0.011790
44.780970,0.038288,-0.025855,0.371674
44.810969,0.099526,-0.106084,0.647951
44.840967,0.112352,-0.046387,0.594853
44.870966,0.160331,-0.132732,0.361442
44.900964,0.096699,-0.081429,0.386313
44.930945,0.115934,-0.180511,0.168866
44.960955,0.207770,-0.180587,-0.097204
45.000960,0.009587,-0.158783,-0.169692
45.050952,0.079745,-0.094746,-0.638413
45.080945,0.116392,-0.051168,-0.539883
45.110949,0.079191,-0.083095,-0.481284
45.140934,0.096584,-0.065060,-0.382891
45.170947,0.061639,-0.040479,-0.347488
45.200950,0.173554,-0.014083,-0.338822
45.230949,0.094184,-0.016117,-0.174271
45.270947,0.125246,0.027516,-0.163354
45.320922,0.083603,0.013763,-0.186925
45.350943,0.083499,-0.002220,-0.203040
45.370942,0.106762,-0.018246,-0.238393
45.400940,0.031223,0.020315,-0.263806
45.440939,0.131666,0.025363,-0.150545
45.480919,0.094975,0.082952,-0.025210
45.510917,0.140446,0.025301,-0.062934
45.540916,0.147469,0.030514,0.143307
45.570907,0.097639,-0.011010,0.262758
45.610926,0.125836,-0.031425,0.458168
45.650924,0.099459,-0.061272,0.573405
45.680923,0.106677,-0.065516,0.499656
45.710921,0.084450,-0.023887,0.495616
45.740920,0.143975,-0.051739,0.494380
45.770919,0.098706,-0.077147,0.340392
45.810917,0.146984,-0.089941,0.121276
45.840914,0.084010,-0.118574,0.102969
45.870913,0.125006,-0.127113,-0.063768
45.910911,0.071047,-0.121539,-0.311608
45.940910,0.078393,-0.085271,-0.389408
45.970909,0.063138,-0.124647,-0.460140
46.000908,0.075562,-0.076616,-0.634038
46.030876,0.045299,-0.062607,-0.800634
46.070903,0.021277,-0.025120,-1.044032
46.110902,0.150462,0.019507,-1.334440
46.140900,0.007641,0.033544,-1.043707
46.170900,-0.000458,0.079361,-0.956907
46.210897,0.081732,0.133543,-0.951287
46.240896,0.016999,0.156945,-0.550469
46.270894,0.047900,0.101404,-0.478126
46.300893,0.218451,0.104189,-0.417249
46.340891,0.186390,0.156373,-0.161591
46.370890,0.126750,0.145843,-0.154156
46.400878,0.106387,0.122443,-0.171375
46.440875,0.105133,0.080877,-0.186562
46.470873,0.067670,0.136286,0.039198
46.520882,0.158186,0.055012,0.138097
46.550881,0.085250,0.169224,0.182549
46.580880,0.074382,0.086083,0.205601
46.610853,0.214523,0.065392,0.450132
46.640876,0.170685,0.011120,0.451981
46.670876,0.174019,-0.022869,0.182540
46.710874,0.190808,-0.012199,0.087502
46.740872,0.081561,-0.067315,-0.063429
46.770870,-0.054794,-0.032863,-0.126246
46.800869,-0.013406,-0.019067,-0.188151
46.850860,0.101866,0.089429,-0.220705
46.880871,0.113654,0.107524,-0.216334
46.910869,0.098712,0.041429,-0.151518
46.940862,0.101717,0.041278,0.141240
46.970838,0.163750,0.004826,0.276720
47.010859,0.090836,0.009166,0.456263
47.040857,0.070723,0.001725,0.504308
47.070856,0.084137,-0.016369,0.382400
47.100854,0.087889,0.003973,0.189119
47.150834,0.150002,-0.098277,-0.283719
47.170850,0.121860,0.040356,-0.242348
47.200848,0.010132,-0.071406,-0.089077
47.230846,-0.069197,0.091889,-0.103119
47.270846,0.021199,0.011877,-0.401682
47.300845,0.048038,0.051072,-0.017895
47.340823,0.004793,0.051277,-0.236918
47.370837,0.125731,-0.006698,0.038398
47.410839,0.134233,-0.036757,0.423946
47.450838,0.085036,0.015657,0.289620
47.480835,0.034208,0.025326,0.371957
47.510835,0.069850,-0.025863,0.244519
47.540834,0.202122,0.053975,-0.122625
47.570832,0.053167,0.000067,-0.379317
47.610830,0.070745,-0.035087,-0.513072
47.640828,0.142929,0.117322,-0.763341
47.670827,0.223177,0.014850,-0.868633
47.700826,0.140694,0.119302,-0.444927
47.740822,0.250331,0.101994,-0.435432
47.780792,0.118014,0.112656,0.167272
47.810800,0.321710,0.034450,0.012934
47.840803,0.331042,0.101496,0.206693
47.870813,0.164387,0.096454,0.383001
47.910815,0.185014,0.095451,0.160750
47.930804,0.113009,0.096615,0.292195
47.970813,0.175623,0.090107,0.231242
48.020795,0.261277,0.094103,0.385102
48.050808,0.228682,0.073842,0.546337
48.080807,0.248508,0.149423,0.679237
48.110806,0.131364,0.109157,0.718577
48.140804,0.363618,0.059718,0.467161
48.170771,0.079889,-0.019736,0.745660
48.200801,0.165850,-0.084951,0.727118
48.240796,0.068227,0.022950,0.712775
48.270770,0.148534,-0.006106,0.897441
48.320795,0.105925,-0.065741,0.960163
48.340794,0.068039,-0.026262,1.062961
48.380792,0.213682,-0.060687,1.027478
48.410792,0.168857,-0.235504,1.195345
48.440789,-0.037590,-0.377994,1.398687
48.480761,-0.066606,0.155283,1.044759
48.500787,0.570538,-0.215837,0.552142
48.540760,-0.074326,-0.157019,0.962909
48.570757,0.110513,-0.207325,0.523450
48.600756,0.365083,-0.252715,0.608617
48.650780,0.687821,-0.185910,-0.140086
48.680777,-0.033469,-0.369813,-0.080023
48.710775,0.102045,-0.229539,0.210270
48.740775,0.261995,-0.268164,-0.020769
48.770748,0.040862,-0.237854,0.055311
48.800764,0.075291,-0.189814,-0.237192
48.830762,0.102165,-0.101207,-0.610673
48.870743,0.072987,-0.142671,-0.705988
48.920759,0.060102,-0.161825,-0.719980
48.950751,0.024073,-0.168172,-0.654830
48.970762,0.093416,-0.115016,-0.671650
49.000761,0.098483,-0.071426,-0.452376
49.050760,0.147312,-0.093195,0.234515
49.070753,0.149837,-0.139134,0.420174
49.110757,0.234877,-0.177878,0.774671
49.140755,0.324336,-0.205817,0.814030
49.170753,0.553378,-0.169019,0.812040
49.210752,-0.058762,-0.105962,1.123456
49.250751,0.135426,-0.279985,0.749559
49.280748,0.109151,-0.302383,0.890479
49.310748,0.182212,-0.212704,0.294752
49.340746,0.063278,-0.073644,-0.116882
49.370744,0.153765,-0.067445,-0.129691
49.400740,0.083075,-0.127127,0.156346
49.440740,0.113581,-0.237178,0.515806
49.470739,0.118713,-0.160357,0.362368
49.500738,0.109789,-0.114402,0.173505
49.550735,0.058566,0.004134,-0.003197
49.570734,0.055146,0.038313,-0.118402
49.610732,0.082237,0.096842,-0.028336
49.640730,0.115414,0.066872,0.063380
49.670711,0.094630,0.096702,0.199243
49.710727,0.132231,-0.012240,0.437971
49.740726,0.082599,-0.351051,0.257687
49.770725,0.281752,-0.606445,0.570365
49.810722,0.269022,-0.570332,0.899653
49.840721,0.346363,-0.630177,0.840540
49.880718,0.259923,-0.544440,0.319622
49.900718,0.153287,-0.408705,0.107769
49.930697,0.055464,-0.177035,-0.117449
49.970685,0.040945,0.047112,-0.604501
50.010712,-0.025414,0.175321,-0.868760
50.040712,-0.029678,0.261733,-0.970856
50.090681,0.022414,0.243320,-0.620514
50.110679,0.035640,0.163215,-0.377348
50.140706,0.090729,-0.013042,0.090726
50.170698,0.146538,-0.189243,0.443406
50.200676,0.155510,-0.193605,0.600444
50.230701,0.122027,-0.168917,0.412538
50.270700,0.073003,-0.084356,-0.057110
50.310697,0.083409,-0.042739,-0.186167
50.340685,0.157914,-0.100504,-0.127737
50.370670,0.163484,-0.170958,0.036418
50.420667,0.118098,-0.167721,0.165730
50.450685,0.107075,-0.133501,0.000309
50.480686,0.092083,-0.069452,-0.102976
50.510671,0.056039,-0.028862,-0.097402
50.540662,0.066961,-0.023599,-0.011899
50.570685,0.108762,-0.038672,0.098060
50.610721,0.119831,-0.078233,0.284821
50.640719,0.120118,-0.074014,0.375664
50.670717,0.120053,-0.068670,0.347913
50.710716,0.092415,-0.023815,0.310770
50.750715,0.086749,0.000788,0.167733
50.770713,0.080309,0.006145,0.144257
50.810692,0.092732,-0.010892,0.045862
50.840711,0.095643,-0.020452,-0.037531
50.870684,0.090173,-0.033216,-0.071791
50.910706,0.086911,-0.053465,-0.070833
50.940705,0.095424,-0.074817,-0.047446
50.970704,0.099888,-0.081261,0.028378
51.000702,0.112745,-0.099436,0.076356
51.050680,0.104207,-0.081280,0.048678
51.080698,0.082889,-0.046028,-0.000273
51.110697,0.107214,-0.067389,-0.030313
51.140695,0.107200,-0.050320,-0.054794
51.170694,0.116641,-0.076985,-0.070970
51.210691,0.138573,-0.112340,0.183125
51.240690,0.130292,-0.131560,0.284526
51.270683,0.118431,-0.147510,0.253455
51.300684,0.113023,-0.066416,0.131029
51.350685,0.104992,-0.040702,-0.092137
51.380682,0.104847,-0.063078,-0.114697
51.410682,0.099600,-0.081213,-0.067783
51.440680,0.111481,-0.107934,0.019681
51.470679,0.113772,-0.117566,0.084804
51.510655,0.117155,-0.116538,0.146780
51.540675,0.113919,-0.110124,0.125446
51.570666,0.107519,-0.082374,0.089273
51.600653,0.095899,-0.051429,0.084103
51.640669,0.085227,-0.018333,0.037275
51.680668,0.087431,-0.003417,0.044836
51.710667,0.097045,-0.005577,0.057643
51.740665,0.091728,-0.004500,0.058719
51.770645,0.090622,-0.009824,0.051211
51.810662,0.086283,0.001933,0.010675
51.840660,0.077704,0.014762,-0.024512
51.870658,0.073453,0.030771,-0.040450
51.910650,0.060826,0.054242,-0.017880
51.940643,0.071698,0.049913,0.062228
51.970653,0.076133,0.045608,0.126311
52.000652,0.091121,0.022094,0.180670
52.040650,0.098508,-0.001379,0.185882
52.070649,0.097279,-0.021617,0.154785
52.110647,0.115164,-0.044022,0.108714
52.140644,0.112767,-0.048239,0.024283
52.170643,0.096740,-0.033260,-0.011959
52.210642,0.076586,0.003040,-0.028850
52.250631,0.085261,0.016862,0.007552
52.270629,0.094988,0.018949,0.053505
52.310628,0.103639,0.016774,0.100503
52.340627,0.092069,0.025311,0.137949
52.370626,0.086871,0.040235,0.162607
52.400625,0.081451,0.040263,0.130555
52.430624,0.077091,0.023223,0.116572
52.470628,0.085594,0.018939,0.116546
52.510626,0.089652,0.013630,0.055614
52.540625,0.091689,0.014707,0.023565
52.570623,0.082922,0.007301,-0.051266
52.600622,0.080639,-0.017202,-0.073838
52.640620,0.091316,-0.036432,-0.041892
52.680598,0.095631,-0.063118,0.008178
52.710596,0.107510,-0.069572,0.071179
52.740595,0.101079,-0.070617,0.058353
52.770594,0.103247,-0.057828,0.056286
52.820598,0.087343,-0.014069,0.027682
52.850600,0.078876,-0.020459,0.052224
52.880605,0.149600,-0.004692,0.184783
52.910604,0.072744,-0.005553,0.120689
52.940580,0.067102,-0.016155,0.026607
52.970581,0.116325,-0.018440,0.110991
53.010601,0.102291,-0.024777,0.054331
53.040599,0.084090,-0.040719,0.039289
53.070598,0.088253,-0.040713,0.007234
53.100597,0.116894,-0.037560,-0.032288
53.150593,0.094480,-0.038567,-0.049384
53.180592,0.093419,-0.037499,-0.049378
53.210592,0.092487,-0.039652,-0.002377
53.240590,0.093656,-0.048205,0.042451
53.270589,0.100126,-0.046100,0.067036
53.310586,0.104447,-0.042920,0.084148
53.340584,0.098031,-0.039701,0.071346
53.390559,0.093781,-0.049292,0.085184
53.400582,0.103360,-0.036513,0.069225
53.450579,0.106325,-0.048216,0.006120
53.480578,0.087110,-0.038564,-0.021602
53.510574,0.099766,-0.024706,-0.078157
53.540574,0.082727,-0.018267,-0.086666
53.570572,0.080751,-0.005487,-0.050267
53.600570,0.090518,-0.006607,0.012764
53.640569,0.099251,-0.010928,0.089667
53.670557,0.096120,-0.013065,0.113163
53.710566,0.097222,-0.020540,0.134490
53.750564,0.106600,-0.039728,0.088439
53.780563,0.101093,-0.049286,0.038170
53.810561,0.086113,-0.031106,-0.007671
53.840559,0.078528,-0.026801,-0.056795
53.870558,0.084963,-0.021490,-0.047151
53.910555,0.088280,-0.011926,-0.012909
53.940555,0.096905,-0.009821,0.015950
53.970552,0.099248,-0.010928,0.088599
54.000551,0.095072,-0.018399,0.124887
54.040547,0.094007,-0.023730,0.131268
54.080524,0.098161,-0.023722,0.096008
54.110523,0.095889,-0.021560,0.045803
54.140523,0.089390,-0.024727,0.012664
54.170522,0.092538,-0.026860,-0.000170
54.200521,0.097855,-0.034338,0.006199
54.230520,0.098942,-0.035410,0.014740
54.270537,0.088350,-0.020462,0.015893
54.310517,0.090600,-0.002353,0.035225
54.350515,0.089659,0.008295,0.064132
54.380533,0.085512,0.021086,0.086641
54.410531,0.095093,0.018932,0.088764
54.440529,0.087621,0.017885,0.083418
54.470527,0.089680,0.006158,0.073737
54.510523,0.083205,0.005120,0.045952
54.540522,0.085336,0.001915,0.050208
54.570502,0.090629,-0.002358,0.044841
54.620519,0.088487,-0.002351,0.040568
54.650518,0.083152,0.001929,0.032045
54.680518,0.083167,0.006193,0.032068
54.700515,0.088517,0.007244,0.039552
54.740514,0.089633,0.008299,0.055584
54.770498,0.090753,0.009355,0.072685
54.800511,0.087615,0.013619,0.086600
54.840480,0.091812,0.004020,0.076930
54.860507,0.093908,-0.004513,0.075814
54.910492,0.087464,-0.008756,0.061902
54.950504,0.093732,-0.013017,0.026618
54.980501,0.089433,-0.016201,0.016985
55.010498,0.089422,-0.011932,0.008461
55.040483,0.091603,-0.011946,0.025556
55.070477,0.095940,-0.015168,0.055454
55.100484,0.091717,-0.013031,0.065083
55.130483,0.093847,-0.011970,0.064020
55.160482,0.097005,-0.014104,0.054391
55.220488,0.094801,-0.029020,0.046830
55.250462,0.097908,-0.030080,0.019044
55.280487,0.095794,-0.025811,0.019068
55.310476,0.088362,-0.016197,0.014848
55.340484,0.087351,-0.009804,0.025568
55.370482,0.091697,-0.015161,0.060797
55.400480,0.094912,-0.018372,0.071464
55.440478,0.100209,-0.026913,0.072484
55.470475,0.094850,-0.027962,0.061795
55.520474,0.096852,-0.032212,0.024375
55.550472,0.100003,-0.035412,0.013672
55.580460,0.099986,-0.038609,0.011517
55.610459,0.097894,-0.039678,0.025402
55.650436,0.096857,-0.041813,0.037143
55.680435,0.100048,-0.042886,0.037137
55.700454,0.100055,-0.039688,0.036086
55.740432,0.089410,-0.028997,0.024394
55.770430,0.090504,-0.022604,0.026566
55.800449,0.101217,-0.025839,0.052189
55.850447,0.092734,-0.025826,0.063944
55.880445,0.099115,-0.027973,0.063931
55.910443,0.094852,-0.022629,0.056482
55.940442,0.090539,-0.021544,0.037256
55.970423,0.092636,-0.023676,0.028696
56.010438,0.094737,-0.029010,0.025461
56.040437,0.094777,-0.025816,0.035095
56.070436,0.096919,-0.026890,0.040431
56.120432,0.095856,-0.030088,0.044687
56.140430,0.093716,-0.025815,0.036164
56.180429,0.091561,-0.025805,0.027616
56.200428,0.092644,-0.019411,0.026583
56.240427,0.088403,-0.009804,0.021294
56.270426,0.089490,-0.009810,0.028773
56.310424,0.088499,-0.009820,0.053348
56.340422,0.094918,-0.013040,0.067219
56.370419,0.089612,-0.015164,0.075756
56.420405,0.092740,-0.014093,0.052255
56.450401,0.089463,-0.020473,0.031920
56.470387,0.086258,-0.022597,0.030841
56.500414,0.093678,-0.036475,0.036105
56.530412,0.102155,-0.048221,0.036038
56.570410,0.098944,-0.055678,0.039204
56.610407,0.103207,-0.061022,0.046652
56.640388,0.094706,-0.058872,0.049872
56.690394,0.107437,-0.067426,0.044479
56.720404,0.114858,-0.080238,0.048681
56.750376,0.107375,-0.082350,0.041192
56.780374,0.104134,-0.087668,0.031547
56.810373,0.105134,-0.088726,0.011240
56.840372,0.105081,-0.085518,-0.010111
56.870390,0.109358,-0.087664,-0.001576
56.910393,0.104168,-0.077007,0.030537
56.940391,0.109465,-0.072748,0.016670
56.970388,0.100993,-0.063136,0.020998
57.020370,0.109529,-0.066358,0.030595
57.050369,0.083950,-0.058830,0.013547
57.080361,0.091423,-0.052450,0.012512
57.110380,0.104191,-0.056744,0.014622
57.140364,0.097803,-0.055663,0.013561
57.170379,0.091499,-0.039662,0.023266
57.210378,0.085137,-0.000185,-0.013911
57.240377,0.087386,0.009391,0.014989
57.270375,0.084360,0.000836,0.081188
57.310354,0.095006,-0.016254,0.100324
57.350350,0.098163,-0.020522,0.092820
57.380369,0.090605,-0.024755,0.062882
57.410349,0.095839,-0.024752,0.032964
57.440347,0.093638,-0.026868,0.011583
57.470346,0.087149,-0.023637,-0.025794
57.500345,0.094580,-0.030050,-0.025831
57.530353,0.098900,-0.036470,0.001913
57.570359,0.092621,-0.034341,0.036117
57.600358,0.094789,-0.027952,0.041494
57.650355,0.090615,-0.011956,0.051199
57.680355,0.088508,-0.010888,0.057616
57.710353,0.089581,-0.001292,0.049121
57.740350,0.087479,-0.003425,0.060863
57.760349,0.088608,-0.002372,0.081169
57.800348,0.097127,-0.019458,0.101374
57.840346,0.100238,-0.032251,0.088481
57.870337,0.095856,-0.036488,0.052131
57.910342,0.096808,-0.037538,0.015798
57.950340,0.087134,-0.034302,-0.018373
57.980339,0.093525,-0.036450,-0.015181
58.000338,0.094657,-0.030063,-0.000188
58.040335,0.090485,-0.029001,0.027599
58.070335,0.094840,-0.027960,0.058589
58.100333,0.099112,-0.026905,0.061799
58.130332,0.099104,-0.023704,0.055406
58.160330,0.094843,-0.022627,0.053276
58.210303,0.095840,-0.023685,0.031901
58.250325,0.091551,-0.031137,0.030793
58.280313,0.094755,-0.031146,0.033997
58.310297,0.098948,-0.042878,0.025384
58.340311,0.102181,-0.048225,0.044586
58.370310,0.103274,-0.055699,0.062709
58.400308,0.104295,-0.052494,0.044562
58.430307,0.102134,-0.051418,0.032815
58.470286,0.094714,-0.042873,0.033933
58.520304,0.095761,-0.034339,0.017952
58.550302,0.094720,-0.031140,0.022244
58.580308,0.095807,-0.024746,0.022279
58.610307,0.094704,-0.024738,0.009458
58.630306,0.091513,-0.018331,0.003083
58.670304,0.086180,-0.010851,-0.008628
58.700302,0.085092,-0.006577,-0.021426
58.740299,0.084044,0.000889,-0.024590
58.770299,0.084058,0.003020,-0.022441
58.820296,0.085231,0.008333,0.007505
58.850295,0.082108,0.010462,0.028887
58.880292,0.081140,0.011515,0.059878
58.900291,0.087556,0.009362,0.071618
58.940291,0.091812,0.017887,0.060979
58.970288,0.086482,0.016833,0.059906
59.010286,0.086495,0.011497,0.070561
59.040284,0.090726,-0.006641,0.082214
59.070283,0.101329,-0.031191,0.095966
59.120281,0.092665,-0.042881,0.060645
59.150279,0.093642,-0.038603,0.026477
59.180278,0.094591,-0.033252,-0.018369
59.210275,0.094554,-0.030046,-0.034378
59.240274,0.084016,-0.009773,-0.021443
59.270273,0.081963,-0.005514,-0.001118
59.310271,0.097043,-0.014110,0.067213
59.340270,0.100295,-0.021594,0.094951
59.370268,0.103536,-0.030142,0.120546
59.420238,0.093860,-0.023705,0.082119
59.450235,0.094777,-0.020483,0.028713
59.480234,0.093664,-0.006606,-0.003264
59.510233,0.088223,-0.000174,-0.050240
59.540257,0.082961,0.008361,-0.039507
59.570232,0.085203,0.004071,0.003208
59.610256,0.091668,-0.009823,0.044800
59.640254,0.100264,-0.024789,0.088522
59.670252,0.101388,-0.034401,0.119455
59.720225,0.095946,-0.034370,0.079923
59.750229,0.094799,-0.026887,0.043637
59.780222,0.088327,-0.015125,0.002033
59.810227,0.085128,-0.005517,-0.010735
59.840226,0.091548,-0.005536,-0.000052
59.870230,0.086300,-0.008737,0.028780
59.900217,0.090677,-0.014100,0.074693
59.940230,0.095099,-0.014137,0.129184
59.970237,0.094107,-0.003479,0.140996
60.020234,0.098390,-0.000293,0.145286
60.050233,0.098320,-0.006681,0.129224
60.070231,0.094019,-0.007731,0.116398
60.110230,0.108842,-0.033352,0.118390
60.140228,0.110863,-0.046138,0.096950
60.170225,0.106502,-0.051445,0.069142
60.210224,0.102151,-0.068487,0.058365
60.240222,0.092443,-0.071645,0.019885
60.270221,0.095539,-0.063102,-0.022807
60.320200,0.147064,-0.014044,-0.296077
60.350199,-0.009321,-0.008380,-0.258612
60.380197,0.006711,0.011840,-0.261710
60.410196,0.061010,0.031986,-0.286187
60.440195,0.082648,0.028680,-0.167611
60.470211,0.085365,0.041378,0.014097
60.500210,0.110970,0.021045,0.054581
60.540207,0.092329,0.001800,0.252145
60.570227,0.083224,-0.001458,0.415605
60.620225,0.104143,0.028424,0.255494
60.650224,0.105045,0.054049,0.171226
60.680220,0.096488,0.027408,0.189246
60.710219,0.104295,0.005998,0.332300
60.740218,0.120676,-0.030373,0.511599
60.770217,0.133555,-0.050686,0.569181
60.800214,0.128558,-0.054995,0.683484
60.840184,0.129996,-0.050793,0.803175
60.860199,0.133266,-0.046546,0.823498
60.910209,0.126980,-0.039082,0.849184
60.950207,0.140708,-0.048695,0.822416
60.970205,0.132182,-0.052941,0.824532
61.010204,0.122505,-0.055037,0.795674
61.040203,0.135154,-0.061444,0.760376
61.070200,0.132767,-0.059263,0.671706
61.110198,0.131444,-0.051751,0.576655
61.130195,0.128084,-0.050650,0.520033
61.160181,0.123550,-0.050594,0.428147
61.200194,0.122110,-0.048396,0.299943
61.250183,0.115291,-0.051510,0.159959
61.280183,0.117283,-0.046158,0.107633
61.310180,0.100124,-0.043966,0.063842
61.340165,0.095712,-0.036464,0.004051
61.370164,0.088208,-0.022572,-0.028994
61.400183,0.088112,-0.022556,-0.061047
61.430182,0.089203,-0.021496,-0.053563
61.470158,0.095750,-0.024737,0.003047
61.500157,0.100071,-0.027957,0.027603
61.550175,0.094825,-0.019424,0.043678
61.580174,0.088426,-0.015141,0.035155
61.610173,0.086322,-0.009807,0.037322
61.640171,0.085256,-0.010872,0.038385
61.680167,0.090516,-0.018340,0.025521
61.710165,0.095826,-0.024750,0.028690
61.740140,0.099026,-0.032225,0.039332
61.770146,0.100109,-0.034363,0.047868
61.820161,0.099046,-0.031161,0.044681
61.850160,0.094800,-0.024754,0.041511
61.880159,0.097964,-0.027956,0.035082
61.910156,0.096900,-0.025820,0.032957
61.940155,0.090474,-0.024733,0.019075
61.970154,0.094678,-0.026867,0.003035
62.010127,0.090402,-0.022587,-0.007625
62.030151,0.090332,-0.027909,-0.024750
62.070147,0.092508,-0.030055,-0.006598
62.120147,0.103145,-0.045011,0.007207
62.140145,0.100017,-0.040748,0.024327
62.170115,0.097935,-0.034351,0.032910
62.210113,0.091487,-0.025793,0.003042
62.240112,0.083058,-0.015122,0.020198
62.270111,0.090563,-0.019414,0.042610
62.300136,0.093783,-0.025826,0.058601
62.340134,0.100224,-0.027982,0.078889
62.370132,0.097021,-0.027974,0.075684
62.400108,0.093765,-0.023689,0.050065
62.450128,0.086334,-0.017276,0.050102
62.470102,0.085237,-0.017268,0.039418
62.500101,0.077747,-0.015112,0.024473
62.540125,0.086307,-0.014072,0.037298
62.570122,0.082010,-0.018323,0.029797
62.600121,0.089481,-0.022609,0.040456
62.640111,0.096934,-0.027959,0.046836
62.670110,0.092684,-0.030084,0.052167
62.720114,0.099091,-0.037569,0.067083
62.750112,0.092766,-0.032231,0.082072
62.780112,0.086357,-0.034347,0.077789
62.810110,0.093900,-0.027979,0.100259
62.840108,0.085379,-0.027959,0.099193
62.870106,0.092835,-0.027976,0.100260
62.910103,0.098234,-0.030134,0.128027
62.940103,0.098189,-0.031193,0.114131
62.970101,0.099246,-0.027994,0.107737
63.020099,0.105558,-0.027996,0.082093
63.050095,0.088562,-0.031164,0.099175
63.070078,0.086347,-0.035412,0.075646
63.110077,0.100025,-0.050349,0.038164
63.140079,0.109500,-0.061020,0.014597
63.170065,0.120081,-0.065300,-0.002524
63.210088,0.109437,-0.051409,-0.017404
63.230089,0.097757,-0.044988,-0.014161
63.270085,0.082946,-0.033237,0.004071
63.320068,0.087228,-0.038584,0.017931
63.350066,0.100063,-0.042889,0.042479
63.370066,0.106498,-0.047178,0.062755
63.400054,0.106490,-0.050377,0.063806
63.440051,0.113951,-0.058928,0.076578
63.470066,0.113911,-0.056788,0.060563
63.500048,0.106372,-0.049290,0.023210
63.540044,0.101040,-0.039677,0.009374
63.570044,0.095736,-0.033268,0.008342
63.620056,0.090369,-0.030049,-0.009803
63.650065,0.094680,-0.029000,0.006229
63.680054,0.093668,-0.018340,0.011630
63.710038,0.084076,-0.011917,0.000983
63.740041,0.088373,-0.005532,0.006359
63.770040,0.094723,-0.011941,0.000980
63.810057,0.086177,-0.011917,-0.008634
63.840054,0.083015,-0.004448,-0.006455
63.870053,0.079758,-0.001230,-0.031011
63.910044,0.082943,-0.002303,-0.033155
63.950043,0.092552,-0.024729,0.001979
63.970046,0.101042,-0.036477,0.006186
64.010022,0.104388,-0.039710,0.060659
64.040035,0.103297,-0.041836,0.054237
64.070038,0.103321,-0.037573,0.057466
64.110040,0.097950,-0.030087,0.032934
64.140038,0.095815,-0.027948,0.028672
64.170037,0.094837,-0.027960,0.057521
64.200014,0.096979,-0.027967,0.061794
64.250030,0.096925,-0.033291,0.050012
64.280029,0.101264,-0.033314,0.076722
64.310030,0.099159,-0.035447,0.087396
64.340029,0.099172,-0.034382,0.090607
64.370027,0.097017,-0.029040,0.075678
64.400025,0.092685,-0.020485,0.041535
64.430023,0.094747,-0.029011,0.028667
64.470019,0.105350,-0.046095,0.033912
64.520020,0.107381,-0.052483,0.008234
64.550017,0.103148,-0.050345,0.014657
64.570016,0.107385,-0.051417,0.008240
64.609985,0.162735,-0.045139,-0.004561
64.640013,0.101039,-0.035410,0.004055
64.670010,0.090503,-0.024738,0.028691
64.700009,0.089527,-0.018350,0.051164
64.739981,0.091702,-0.023696,0.072503
64.769994,0.093890,-0.022644,0.090673
64.820003,0.101214,-0.032226,0.042538
64.840002,0.093708,-0.027947,0.036152
64.870000,0.099008,-0.031155,0.031859
64.909998,0.095844,-0.027953,0.038288
64.939972,0.096870,-0.035415,0.033973
64.969995,0.096829,-0.034342,0.019021
64.999994,0.095849,-0.024753,0.036169
65.029992,0.095817,-0.024748,0.025484
65.059991,0.091499,-0.021528,0.001997
65.109988,0.094723,-0.024741,0.015868
65.149967,0.099025,-0.027958,0.034014
65.179985,0.101134,-0.031159,0.030790
65.209961,0.093641,-0.034336,0.021158
65.239960,0.097964,-0.034356,0.042526
65.269956,0.100055,-0.033288,0.028642
65.299957,0.093632,-0.032201,0.015828
65.329956,0.090519,-0.024740,0.034033
65.369968,0.093767,-0.024756,0.052196
65.419972,0.086450,-0.014096,0.085379
65.449970,0.085345,-0.006620,0.062983
65.479969,0.079978,-0.002334,0.043775
65.509967,0.070449,0.008346,0.049178
65.539966,0.079999,-0.000204,0.048061
65.569960,0.085351,-0.001287,0.058738
65.609975,0.093782,-0.008759,0.038394
65.639972,0.102442,-0.018402,0.097105
65.669969,0.109108,-0.025929,0.198566
65.719970,0.113439,-0.039818,0.239090
65.749968,0.101749,-0.040862,0.247635
65.779967,0.082580,0.027450,0.166812
65.809965,0.071928,0.024275,0.168934
65.839963,0.032433,0.023313,0.136884
65.869962,0.066558,0.033895,0.142276
65.909960,0.069747,0.024288,0.151839
65.939958,0.071725,0.002975,0.126078
65.969956,0.081327,0.008283,0.126105
66.019954,0.086616,0.009344,0.113288
66.049953,0.083393,-0.002378,0.117498
66.079939,0.088713,-0.004522,0.118554
66.099938,0.096188,-0.010943,0.133475
66.139933,0.095085,-0.017334,0.128098
66.169936,0.098098,-0.029045,0.081020
66.209944,0.100201,-0.035445,0.079916
66.239943,0.101144,-0.037561,0.041440
66.269941,0.101066,-0.039681,0.017922
66.319921,0.102118,-0.039681,0.013648
66.349909,0.096787,-0.034335,0.005131
66.379927,0.096815,-0.029006,0.008365
66.409926,0.092549,-0.024729,0.000911
66.439926,0.087241,-0.018319,-0.001190
66.469913,0.092652,-0.016212,0.025532
66.499909,0.093795,-0.020494,0.056494
66.539926,0.096966,-0.027965,0.057520
66.569923,0.094805,-0.026888,0.045774
66.619922,0.093692,-0.021544,0.023366
66.649920,0.094724,-0.022608,0.013743
66.679920,0.095799,-0.027945,0.023330
66.709917,0.099056,-0.031163,0.047886
66.739917,0.094809,-0.026888,0.046842
66.769915,0.090585,-0.020485,0.051152
66.809912,0.091667,-0.017290,0.053306
66.839910,0.088420,-0.014074,0.031956
66.869909,0.085257,-0.008738,0.036259
66.909907,0.078936,-0.002335,0.051255
66.949905,0.082147,-0.001278,0.055534
66.979903,0.083233,-0.003418,0.065138
67.009903,0.084290,-0.005552,0.065126
67.039900,0.083231,-0.007684,0.069388
67.079883,0.090688,-0.013035,0.076836
67.099898,0.089577,-0.015158,0.064003
67.129896,0.084229,-0.011942,0.052269
67.169880,0.087412,-0.008747,0.044807
67.199868,0.082032,-0.006593,0.023450
67.239889,0.085234,-0.010868,0.030905
67.279888,0.086389,-0.009819,0.059759
67.309886,0.089524,-0.018349,0.050096
67.339884,0.088483,-0.016218,0.055450
67.369882,0.091627,-0.020483,0.043673
67.409880,0.091588,-0.021543,0.031914
67.439879,0.093718,-0.027948,0.039357
67.459854,0.096920,-0.030090,0.044687
67.519850,0.099015,-0.035423,0.039315
67.549849,0.108564,-0.039705,0.032878
67.579848,0.114921,-0.038648,0.021130
67.609847,0.122363,-0.047196,0.027492
67.639868,0.116039,-0.039726,0.040356
67.669861,0.121364,-0.037605,0.038229
67.699843,0.122396,-0.032268,0.021163
67.739864,0.092647,-0.020478,0.028714
67.769862,0.090545,-0.017278,0.034074
67.819859,0.086420,-0.018357,0.080013
67.849856,0.099336,-0.020543,0.129148
67.879856,0.098286,-0.022676,0.136615
67.909854,0.081176,-0.004492,0.090775
67.949848,0.078124,0.009534,-0.233960
67.979833,0.066797,0.019096,-0.116373
68.009825,0.093645,-0.025803,0.012657
68.039822,0.105664,-0.039747,0.131177
68.089845,0.094920,-0.021573,0.077857
68.119838,0.082922,-0.010833,-0.029996
68.149842,0.088259,-0.022580,-0.011898
68.179841,0.098878,-0.035400,-0.006629
68.209838,0.110638,-0.053568,0.030665
68.239836,0.120315,-0.063205,0.073348
68.269835,0.120363,-0.063213,0.089375
68.299834,0.115107,-0.056812,0.104370
68.339832,0.107665,-0.052531,0.103327
68.379827,0.105654,-0.039746,0.127972
68.419813,0.105487,-0.041851,0.074537
68.449805,0.096866,-0.030081,0.026523
68.479811,0.092449,-0.020445,-0.037531
68.509810,0.091149,-0.023604,-0.112340
68.539809,0.089097,-0.023612,-0.086697
68.569808,0.089157,-0.024688,-0.065333
68.599806,0.088185,-0.023635,-0.035410
68.629800,0.092481,-0.026851,-0.019402
68.669812,0.096813,-0.027939,0.006234
68.719812,0.099171,-0.030115,0.085288
68.749782,0.099254,-0.030129,0.113068
68.779808,0.096093,-0.021594,0.114184
68.799807,0.099285,-0.020534,0.112052
68.839805,0.092938,-0.014126,0.118500
68.869804,0.087596,-0.005578,0.102521
68.899801,0.080016,-0.004473,0.058722
68.939777,0.090610,-0.007689,0.044812
68.989798,0.090482,-0.020467,0.016961
69.019795,0.097918,-0.024748,0.015868
69.049793,0.096877,-0.026883,0.026541
69.069792,0.097910,-0.026880,0.015856
69.109790,0.092599,-0.020470,0.012687
69.139789,0.094749,-0.023678,0.023354
69.169787,0.097995,-0.023694,0.040448
69.209785,0.105482,-0.031183,0.060706
69.239783,0.101306,-0.032254,0.089550
69.269781,0.104546,-0.031202,0.103445
69.319779,0.098085,-0.022642,0.069302
69.349760,0.088407,-0.015138,0.028744
69.379777,0.082026,-0.011925,0.027695
69.409774,0.092710,-0.015155,0.043702
69.439772,0.099064,-0.020497,0.038328
69.469771,0.095880,-0.020492,0.041535
69.499770,0.089456,-0.020471,0.029783
69.529741,0.088382,-0.014067,0.019134
69.569766,0.087339,-0.015135,0.027676
69.619734,0.087465,-0.013023,0.067221
69.649733,0.085310,-0.013014,0.058674
69.679732,0.088492,-0.010886,0.052274
69.709755,0.089594,-0.006628,0.059776
69.739746,0.088499,-0.009820,0.053348
69.769737,0.091688,-0.014093,0.056529
69.799735,0.093839,-0.015168,0.065071
69.839740,0.095960,-0.020505,0.068246
69.869731,0.095972,-0.021574,0.073583
69.919746,0.095946,-0.021569,0.065035
69.949744,0.090631,-0.017292,0.062923
69.979743,0.092743,-0.020494,0.060768
70.009742,0.094899,-0.019437,0.068252
70.039740,0.093885,-0.018376,0.084285
70.069739,0.093846,-0.020503,0.073589
70.109738,0.088583,-0.015168,0.087510
70.139728,0.087509,-0.014097,0.083242
70.169727,0.093802,-0.019429,0.057568
70.219732,0.089521,-0.018349,0.049027
70.249729,0.088395,-0.019403,0.029789
70.279728,0.090528,-0.018342,0.029795
70.309726,0.092637,-0.021543,0.026571
70.339725,0.093749,-0.022620,0.043660
70.369724,0.093782,-0.021559,0.053282
70.409717,0.095894,-0.023694,0.050065
70.439715,0.093807,-0.022630,0.062893
70.469715,0.098018,-0.027965,0.053246
70.509715,0.099144,-0.026911,0.072484
70.549714,0.106580,-0.036525,0.077772
70.569711,0.103333,-0.032242,0.055358
70.609747,0.100075,-0.032224,0.033990
70.639746,0.090471,-0.030066,0.024388
70.669744,0.098982,-0.031150,0.023311
70.699724,0.101111,-0.033288,0.025436
70.729742,0.101100,-0.035420,0.024356
70.769738,0.100035,-0.041818,0.031800
70.819718,0.101173,-0.041832,0.056375
70.849721,0.101150,-0.043962,0.051021
70.879719,0.106532,-0.041850,0.068126
70.909707,0.107587,-0.049318,0.073427
70.939718,0.110776,-0.047191,0.069164
70.979700,0.109656,-0.054646,0.059508
70.999726,0.107528,-0.052508,0.057383
71.029725,0.102328,-0.041850,0.086291
71.069715,0.109941,-0.053627,0.153538
71.119719,0.114377,-0.056866,0.216558
71.149717,0.102698,-0.054712,0.225121
71.179717,0.096341,-0.044036,0.223044
71.209715,0.090031,-0.040834,0.245501
71.239713,0.095391,-0.050453,0.268953
71.279710,0.109486,-0.054793,0.358677
71.309687,0.105375,-0.066541,0.421652
71.339686,0.110905,-0.082588,0.509177
71.379704,0.131666,-0.093389,0.699299
71.419703,0.118056,-0.104063,0.788995
71.439702,0.125651,-0.100903,0.832817
71.469701,0.122802,-0.095620,0.941830
71.509699,0.105795,-0.088120,0.942944
71.539696,0.091934,-0.082752,0.930155
71.569695,0.106762,-0.065706,0.884302
71.599694,0.077674,-0.062384,0.766796
71.639690,0.084915,-0.058099,0.690957
71.659689,0.052781,-0.059062,0.627920
71.719667,0.088279,-0.078226,0.415181
71.749682,0.105289,-0.084661,0.414074
71.779683,0.157129,-0.109256,0.331654
71.809682,0.097504,-0.078188,0.295512
71.839681,0.096198,-0.086679,0.224947
71.869678,0.091817,-0.081316,0.177965
71.899678,0.122760,-0.097397,0.218471
71.929676,0.185361,-0.111369,0.161750
71.969673,0.180606,-0.094209,-0.024067
71.999672,0.135364,-0.105755,-0.185458
72.049669,0.068803,-0.106582,-0.367085
72.079641,0.017720,-0.104337,-0.361719
72.109666,0.105056,-0.136539,-0.314904
72.139664,0.140408,-0.171855,-0.201849
72.179661,0.200605,-0.237152,0.064894
72.209650,0.200248,-0.227668,0.290392
72.239649,0.165136,-0.197725,0.263853
72.269649,0.131966,-0.185890,0.195544
72.319655,0.126579,-0.146400,0.128449
72.349653,0.123138,-0.134619,0.032353
72.379651,0.163087,-0.173025,-0.093946
72.409633,0.170370,-0.174080,-0.149514
72.439648,0.131795,-0.164353,-0.242408
72.469647,0.099653,-0.117314,-0.363946
72.509643,0.065633,-0.039377,-0.437234
72.539642,0.053956,-0.014823,-0.454191
72.569641,0.071057,-0.017006,-0.429633
72.619637,0.075999,-0.012863,-0.206302
72.649637,0.085794,-0.028920,-0.116642
72.679615,0.100983,-0.052467,0.005030
72.709615,0.113981,-0.069600,0.098957
72.739614,0.123536,-0.086684,0.109546
72.769613,0.117147,-0.074936,0.095722
72.799610,0.098005,-0.048230,0.072367
72.829599,0.087169,-0.035374,-0.005557
72.869624,0.074309,-0.003331,-0.070555
72.919615,0.073399,0.011579,-0.036282
72.929621,0.077701,0.009429,-0.019199
72.979618,0.100204,-0.010912,0.052271
73.009617,0.094981,-0.014117,0.089651
73.039615,0.095917,-0.029031,0.063925
73.079612,0.086398,-0.010887,0.064027
73.099599,0.086374,-0.007683,0.052292
73.139596,0.088609,-0.000238,0.079044
73.169581,0.077922,0.002992,0.061969
73.199580,0.075759,0.012603,0.039584
73.249595,0.067555,0.046704,0.104950
73.289576,0.054716,0.068077,0.059127
73.309589,0.049374,0.076625,0.043148
73.339579,0.043010,0.079835,0.047441
73.369579,0.047304,0.074486,0.065574
73.409595,0.062181,0.059524,0.072968
73.439593,0.072640,0.041398,0.031196
73.469591,0.066263,0.039277,0.037596
73.519582,0.087367,-0.010873,0.031973
73.549563,0.088500,-0.027954,0.074618
73.579583,0.087411,-0.030081,0.069264
73.609578,0.083144,-0.021536,0.056490
73.639563,0.077797,-0.004454,0.028806
73.669577,0.068214,0.007302,0.014982
73.699575,0.074511,0.004102,-0.011748
73.729574,0.072530,0.013683,0.026770
73.769575,0.088428,-0.018342,0.039411
73.819570,0.098094,-0.030111,0.081014
73.849570,0.101185,-0.038634,0.056392
73.879567,0.102156,-0.039688,0.026469
73.909567,0.096804,-0.038604,0.015792
73.939565,0.099985,-0.039676,0.012580
73.969564,0.108503,-0.047162,0.021084
73.999563,0.107530,-0.041841,0.045688
74.039534,0.100206,-0.026913,0.071415
74.069538,0.085339,-0.010885,0.066165
74.119556,0.073627,0.008341,0.043835
74.149555,0.073617,0.006210,0.042755
74.179552,0.074705,0.003003,0.054490
74.209551,0.076878,-0.000209,0.072636
74.249537,0.077934,0.000857,0.068368
74.279533,0.073633,0.000874,0.054479
74.329544,0.090664,-0.016231,0.072545
74.339534,0.088553,-0.010896,0.072575
74.369524,0.086386,-0.015152,0.065072
74.409539,0.091647,-0.013020,0.041577
74.439537,0.091664,-0.016223,0.051175
74.479536,0.099063,-0.029031,0.047898
74.509533,0.096965,-0.024764,0.053264
74.539532,0.096823,-0.032207,0.014758
74.569509,0.086208,-0.014055,0.004176
74.599510,0.085209,-0.015130,0.027677
74.629506,0.093701,-0.022612,0.027633
74.669525,0.092785,-0.013034,0.066151
74.699524,0.097992,-0.029027,0.045761
74.749501,0.093750,-0.021553,0.042598
74.759518,0.096903,-0.025821,0.034026
74.809498,0.096937,-0.027960,0.047904
74.839497,0.099085,-0.031168,0.057502
74.869491,0.096978,-0.023700,0.056475
74.909511,0.092704,-0.015154,0.041565
74.929510,0.090567,-0.010881,0.034110
74.979507,0.088403,-0.010871,0.022357
75.009506,0.091657,-0.010888,0.042657
75.049504,0.085335,-0.006618,0.059777
75.079502,0.087451,-0.007687,0.056566
75.109500,0.097070,-0.019448,0.082142
75.139500,0.110947,-0.037619,0.115161
75.169498,0.121602,-0.054711,0.137502
75.209467,0.126918,-0.069656,0.152377
75.239466,0.134176,-0.082440,0.102087
75.269465,0.134059,-0.079221,0.059367
75.319489,0.131849,-0.073869,0.026274
75.349471,0.111580,-0.064217,0.001757
75.379486,0.114756,-0.062087,-0.006779
75.409475,0.115765,-0.064214,-0.022818
75.439467,0.115770,-0.066348,-0.018556
75.469472,0.121162,-0.071705,0.010262
75.509478,0.121173,-0.074907,0.017723
75.529470,0.116973,-0.070640,0.032706
75.569475,0.119078,-0.074908,0.029477
75.619460,0.105123,-0.058857,-0.027060
75.649460,0.107228,-0.057791,-0.036671
75.679454,0.111472,-0.060999,-0.037758
75.709456,0.105261,-0.052480,0.011440
75.739436,0.109549,-0.057828,0.027436
75.769458,0.102254,-0.049304,0.070223
75.799457,0.103401,-0.043987,0.091622
75.829455,0.107607,-0.041854,0.071331
75.869453,0.094948,-0.023711,0.089598
75.919450,0.086348,-0.014079,0.051188
75.949448,0.085335,-0.000218,0.052333
75.979447,0.077843,-0.001261,0.040576
76.009444,0.081017,-0.004465,0.037352
76.039424,0.078963,-0.000206,0.057677
76.069442,0.079975,-0.003400,0.043769
76.099441,0.084152,-0.006596,0.020245
76.139427,0.085242,-0.006603,0.028792
76.169408,0.087268,-0.010857,-0.001149
76.219433,0.085154,-0.010855,0.004194
76.249431,0.084054,-0.011913,-0.006496
76.279430,0.084145,-0.008728,0.020233
76.309428,0.089569,-0.011957,0.057610
76.339427,0.089644,-0.016236,0.087503
76.369425,0.091856,-0.016255,0.115283
76.399424,0.093957,-0.016255,0.105666
76.429421,0.098165,-0.021589,0.094951
76.459419,0.094909,-0.017305,0.069332
76.519415,0.079792,-0.010836,-0.008626
76.549393,0.087232,-0.011917,-0.011839
76.579391,0.092463,-0.023648,-0.029000
76.609389,0.103140,-0.035410,-0.005561
76.639389,0.103225,-0.032224,0.019031
76.669387,0.103246,-0.039694,0.035017
76.709404,0.104415,-0.037581,0.067082
76.729405,0.098061,-0.031172,0.071392
76.769401,0.094825,-0.025824,0.051122
76.819401,0.089468,-0.016207,0.028738
76.849398,0.089369,-0.021524,0.001997
76.879397,0.086300,-0.014071,0.035161
76.909394,0.094814,-0.022622,0.043660
76.939393,0.092749,-0.008762,0.049079
76.979391,0.073489,0.006231,0.000017
77.009388,0.064992,0.016913,-0.005265
77.039387,0.068285,0.021157,0.022538
77.069361,0.073629,0.017941,0.033203
77.119383,0.078099,0.017896,0.103721
77.149374,0.087634,-0.000251,0.108961
77.179379,0.086609,0.001878,0.119658
77.209377,0.091872,-0.003457,0.105737
77.239377,0.098080,-0.018375,0.062915
77.269375,0.088444,-0.011944,0.037310
77.309372,0.089380,-0.012992,-0.004367
77.339370,0.082990,-0.002311,-0.017128
77.369369,0.072392,0.006239,-0.010668
77.419365,0.076885,0.020057,0.051378
77.449355,0.079052,0.011513,0.073768
77.479351,0.080186,0.009365,0.099400
77.509353,0.085538,0.002948,0.116458
77.539351,0.090747,-0.008778,0.091818
77.569350,0.094986,-0.016251,0.093913
77.599349,0.097022,-0.024774,0.072496
77.639354,0.102207,-0.034363,0.037183
77.689345,0.100042,-0.034352,0.025431
77.719341,0.101053,-0.039679,0.013648
77.729349,0.105296,-0.039686,0.008305
77.779328,0.113819,-0.055706,0.028515
77.809342,0.111721,-0.056773,0.040263
77.839342,0.108570,-0.052507,0.049903
77.879322,0.108532,-0.052500,0.037082
77.899339,0.111736,-0.052509,0.040286
77.939338,0.109657,-0.047179,0.051001
77.979334,0.094924,-0.026908,0.085307
78.019333,0.100136,-0.031168,0.053228
78.029316,0.095898,-0.029028,0.057515
78.079330,0.095806,-0.034346,0.032911
78.109328,0.100002,-0.037546,0.015797
78.139326,0.102059,-0.041805,-0.003459
78.169325,0.105163,-0.050331,-0.023808
78.199322,0.102021,-0.047132,-0.009900
78.239321,0.112654,-0.056754,-0.003544
78.279317,0.110636,-0.058901,0.035978
78.309317,0.111716,-0.059973,0.042382
78.339314,0.112800,-0.059978,0.048793
78.379312,0.106452,-0.055704,0.057366
78.409309,0.108599,-0.051445,0.058457
78.439285,0.106496,-0.043978,0.058498
78.469283,0.102254,-0.042904,0.062779
78.499282,0.099099,-0.034370,0.066032
78.529279,0.090628,-0.023692,0.069298
78.569302,0.089521,-0.018349,0.049027
78.599300,0.091700,-0.016229,0.062928
78.649297,0.091606,-0.023680,0.040450
78.659298,0.091578,-0.023675,0.030834
78.709274,0.093668,-0.024740,0.019074
78.749293,0.088332,-0.023659,0.013739
78.779291,0.093691,-0.023677,0.025491
78.799270,0.100075,-0.033291,0.035053
78.839287,0.104394,-0.039711,0.062796
78.869285,0.117144,-0.054669,0.071259
78.919283,0.110700,-0.057845,0.056284
78.929283,0.110651,-0.059970,0.042383
78.979281,0.109557,-0.055696,0.027448
79.009278,0.107405,-0.055687,0.019969
79.039276,0.103145,-0.051411,0.014651
79.079273,0.107431,-0.047158,0.018948
79.099273,0.098851,-0.043929,-0.005607
79.139271,0.079868,-0.005515,0.010635
79.169270,0.077801,0.004079,0.020305
79.219267,0.070626,0.016850,0.098375
79.249265,0.086603,-0.002388,0.122840
79.279263,0.089849,-0.007737,0.146316
79.309261,0.097203,-0.021604,0.129142
79.339260,0.104401,-0.033312,0.057489
79.379232,0.098991,-0.025819,0.020135
79.409229,0.096785,-0.032201,0.001937
79.439254,0.098914,-0.026872,-0.004445
79.459253,0.102110,-0.029013,-0.001252
79.509250,0.096875,-0.024749,0.023347
79.549248,0.095856,-0.030088,0.044687
79.579232,0.095898,-0.021561,0.049008
79.609237,0.104297,-0.036494,0.026486
79.639230,0.106471,-0.042907,0.048888
79.669234,0.119320,-0.065348,0.098980
79.699233,0.136267,-0.088839,0.096709
79.739232,0.143651,-0.099511,0.085964
79.769216,0.142367,-0.110138,0.025004
79.819234,0.120979,-0.090875,-0.028308
79.829228,0.123105,-0.086612,-0.034696
79.879231,0.119947,-0.070611,-0.041018
79.899230,0.122144,-0.064227,-0.011048
79.939229,0.097797,-0.049262,0.003980
79.979207,0.101162,-0.039697,0.049976
79.999224,0.098109,-0.019446,0.073594
80.039216,0.081210,-0.007697,0.105716
80.079219,0.083302,-0.013029,0.099276
80.119218,0.074758,-0.007672,0.084349
80.149217,0.076748,-0.005520,0.035211
80.179215,0.073481,0.003032,0.001068
80.209214,0.077681,0.006233,-0.022422
80.249195,0.062763,0.021202,-0.043705
80.269210,0.059600,0.026537,-0.039401
80.309206,0.056584,0.043582,0.000226
80.339206,0.052356,0.048919,0.004530
80.369205,0.058822,0.049959,0.029109
80.419202,0.065389,0.030714,0.111274
80.449200,0.072809,0.015769,0.117600
80.479199,0.086564,-0.004514,0.112143
80.509196,0.090656,-0.024763,0.079977
80.539168,0.095834,-0.034351,0.042527
80.569191,0.085151,-0.017254,0.010570
80.599196,0.070159,0.003061,-0.041670
80.629196,0.070073,0.010542,-0.079025
80.669218,0.071310,0.015844,-0.027710
80.719191,0.092736,-0.002359,0.037361
80.729215,0.094908,-0.006638,0.056570
80.779212,0.090749,-0.011978,0.096074
80.789185,0.092855,-0.013046,0.089657
80.839210,0.097153,-0.013062,0.102478
80.879207,0.097045,-0.023711,0.078913
80.899206,0.097072,-0.021582,0.085335
80.939203,0.097018,-0.020506,0.066109
80.969196,0.089477,-0.016208,0.031944
81.019200,0.083085,-0.004460,0.017051
81.049198,0.085188,-0.007660,0.011691
81.079196,0.083167,-0.007673,0.048019
81.109187,0.091668,-0.016223,0.052244
81.149189,0.093836,-0.020501,0.070384
81.169191,0.092782,-0.019434,0.072527
81.209186,0.095975,-0.021574,0.074651
81.239187,0.102303,-0.027979,0.061793
81.269184,0.094852,-0.022629,0.056482
81.319184,0.092573,-0.021532,0.005202
81.349182,0.092640,-0.021544,0.027640
81.379158,0.092631,-0.026876,0.030816
81.409178,0.097985,-0.031159,0.045749
81.439177,0.101220,-0.032240,0.060701
81.469174,0.102222,-0.036499,0.044651
81.499159,0.104309,-0.045030,0.040329
81.529158,0.107496,-0.046103,0.039254
81.569170,0.106344,-0.048219,0.012531
81.619156,0.110628,-0.054633,0.028522
81.649159,0.109540,-0.056760,0.023168
81.679152,0.111623,-0.059957,0.011397
81.709135,0.110604,-0.057829,0.024231
81.749160,0.108472,-0.056757,0.022100
81.769159,0.105291,-0.055685,0.025312
81.809157,0.107443,-0.050360,0.026409
81.839156,0.102122,-0.043949,0.020035
81.869154,0.102168,-0.041823,0.032868
81.919126,0.104312,-0.045030,0.041398
81.929149,0.105392,-0.046102,0.047802
81.979122,0.113941,-0.054660,0.068054
82.009129,0.103292,-0.045035,0.056356
82.049121,0.105326,-0.050358,0.030684
82.079119,0.110663,-0.049305,0.033894
82.109119,0.107475,-0.050366,0.037094
82.139118,0.102152,-0.041820,0.027526
82.169117,0.098917,-0.040740,0.012574
82.199115,0.098946,-0.033278,0.013684
82.229135,0.096837,-0.031143,0.017970
82.279133,0.088433,-0.020476,0.043673
82.309131,0.090560,-0.018347,0.040479
82.339128,0.088490,-0.015152,0.056524
82.379126,0.089624,-0.016233,0.081093
82.409124,0.088613,-0.011973,0.093938
82.439123,0.084405,-0.005571,0.103590
82.469122,0.088583,-0.014101,0.086447
82.519118,0.098116,-0.030114,0.088494
82.549117,0.104444,-0.042919,0.083079
82.579115,0.109804,-0.047204,0.100150
82.609114,0.122505,-0.056820,0.086204
82.639113,0.113899,-0.062120,0.062671
82.679110,0.111869,-0.054665,0.087287
82.699080,0.107568,-0.049315,0.067017
82.739107,0.104381,-0.034375,0.052141
82.769092,0.099976,-0.039674,0.009374
82.819104,0.094622,-0.028991,-0.013003
82.829103,0.095669,-0.033257,-0.014096
82.879099,0.084001,-0.027904,-0.005516
82.909098,0.102188,-0.033293,0.029710
82.939096,0.099091,-0.037569,0.067083
82.979082,0.112007,-0.053621,0.132168
83.009082,0.113297,-0.056861,0.211216
83.039078,0.106197,-0.065437,0.339387
83.079089,0.123493,-0.081519,0.445072
83.119088,0.134349,-0.086911,0.520901
83.149085,0.125020,-0.083731,0.602124
83.179084,0.131570,-0.093373,0.667245
83.209082,0.112483,-0.096543,0.697150
83.239080,0.117912,-0.097639,0.733470
83.279078,0.112822,-0.110466,0.826357
83.299077,0.106481,-0.124326,0.858336
83.339055,0.166137,-0.145800,0.893463
83.379069,0.154321,-0.142556,0.855019
83.419050,0.090212,-0.124241,0.758973
83.449049,0.050570,-0.094244,0.641617
83.479048,0.011000,-0.047192,0.528628
83.509047,-0.020021,-0.022565,0.451841
83.539046,-0.021193,0.005189,0.383612
83.579060,-0.009497,-0.025768,0.414425
83.609060,0.065101,-0.084615,0.504903
83.639059,0.097048,-0.131622,0.561265
83.679056,0.068179,-0.158204,0.551510
83.699055,0.045725,-0.134671,0.492879
83.749053,-0.059493,-0.029930,0.434714
83.779051,0.023634,-0.033330,0.464593
83.809050,0.039647,-0.077107,0.529525
83.839048,0.076888,-0.101721,0.549682
83.869047,0.073563,-0.080358,0.481418
83.909015,-0.037462,-0.033126,0.328914
83.939014,-0.039714,-0.004300,0.254280
83.969013,0.005772,-0.011820,0.163409
84.019038,0.106509,-0.062113,0.084042
84.049036,0.126707,-0.126155,0.147793
84.079035,0.139505,-0.135787,0.165901
84.109034,0.191565,-0.155086,0.150824
84.139032,0.167954,-0.171003,0.106935
84.169020,0.187920,-0.194471,0.045899
84.209028,0.182274,-0.185872,-0.071584
84.239027,0.122308,-0.165414,-0.209289
84.259026,0.109397,-0.133362,-0.291381
84.309022,0.098290,-0.125795,-0.453744
84.349018,0.167443,-0.170742,-0.419816
84.379012,0.253742,-0.199746,-0.367641
84.409010,0.197717,-0.212487,-0.217045
84.439009,0.193544,-0.219959,-0.179689
84.468993,0.159663,-0.177246,-0.165556
84.499011,0.106414,-0.125924,-0.229369
84.528996,0.094730,-0.107768,-0.241019
84.569008,0.128887,-0.116393,-0.202610
84.619002,0.120549,-0.147337,-0.106616
84.649000,0.123753,-0.146279,-0.104474
84.678999,0.120512,-0.156931,-0.107738
84.708984,0.106717,-0.127041,-0.126802
84.738998,0.078036,-0.083253,-0.155403
84.778997,0.065352,-0.044839,-0.169079
84.798996,0.070829,-0.032076,-0.132683
84.838976,0.068989,-0.027853,-0.040771
84.868993,0.116015,-0.036522,0.028620
84.918990,0.114162,-0.066430,0.155603
84.928975,0.104726,-0.060033,0.197311
84.978986,0.136574,-0.081423,0.190775
85.008984,0.126797,-0.067502,0.109651
85.038983,0.093872,-0.033307,0.097025
85.078968,0.098884,-0.036467,-0.003429
85.108979,0.100997,-0.030069,-0.016216
85.128978,0.104175,-0.037541,-0.013053
85.168975,0.094538,-0.042844,-0.024833
85.208974,0.103195,-0.046086,0.025365
85.228962,0.110641,-0.054635,0.032796
85.278969,0.104278,-0.041825,0.026457
85.318968,0.086179,-0.025784,0.008385
85.338942,0.085098,-0.021512,-0.002275
85.368940,0.091442,-0.014052,-0.025742
85.398940,0.089374,-0.011924,-0.007566
85.428938,0.087237,-0.020452,-0.000133
85.468959,0.101203,-0.027970,0.050040
85.498958,0.105480,-0.035450,0.064956
85.538945,0.104461,-0.040788,0.086297
85.578955,0.100152,-0.032237,0.059633
85.608946,0.107560,-0.033313,0.045735
85.638935,0.100020,-0.034348,0.017951
85.678941,0.089420,-0.016199,0.012711
85.708939,0.092604,-0.017271,0.010568
85.738937,0.077834,-0.006593,0.043752
85.778935,0.094881,-0.016234,0.058654
85.818934,0.086429,-0.005559,0.068331
85.828930,0.087497,-0.006628,0.070461
85.858910,0.087519,-0.005565,0.076878
85.908928,0.083176,-0.002341,0.044843
85.938927,0.082132,0.000858,0.048066
85.978904,0.086389,0.010448,0.036365
85.998923,0.089523,0.005118,0.022445
86.038904,0.085258,-0.000205,0.026690
86.078919,0.089521,-0.017288,0.040484
86.118917,0.093752,-0.022621,0.044729
86.148915,0.104268,-0.043956,0.025377
86.178914,0.103078,-0.045000,-0.015230
86.208913,0.092440,-0.043911,-0.013085
86.248883,0.094469,-0.047099,-0.043020
86.268908,0.092289,-0.046019,-0.061177
86.298907,0.094434,-0.040693,-0.062217
86.328905,0.092299,-0.039620,-0.065416
86.358905,0.090196,-0.031087,-0.066437
86.408900,0.093553,-0.031121,-0.011946
86.448898,0.091489,-0.028994,0.007298
86.478879,0.097961,-0.033289,0.040395
86.508897,0.090615,-0.023690,0.065025
86.538886,0.094831,-0.026892,0.054321
86.568886,0.084300,-0.011954,0.075775
86.598884,0.085388,-0.008760,0.080066
86.638870,0.078036,0.007240,0.095115
86.678880,0.085479,0.000825,0.099351
86.708877,0.082322,0.010426,0.100473
86.748882,0.078077,0.007233,0.109005
86.758864,0.076994,0.007239,0.102594
86.808879,0.082305,0.008295,0.097256
86.838877,0.089647,0.004030,0.065177
86.868876,0.073706,0.011528,0.066291
86.908873,0.084225,-0.001275,0.038438
86.938871,0.085335,-0.000218,0.052333
86.978870,0.089577,-0.015158,0.064003
86.998843,0.087459,-0.018355,0.071465
87.048866,0.094905,-0.024771,0.076771
87.078864,0.095890,-0.025827,0.051122
87.108862,0.092705,-0.019421,0.046884
87.138861,0.089483,-0.024743,0.043650
87.178846,0.083110,-0.018331,0.041550
87.208843,0.091548,-0.018337,0.014836
87.238842,0.096852,-0.020479,0.010549
87.268854,0.086301,-0.019404,0.041543
87.298851,0.091517,-0.028998,0.016914
87.348849,0.087339,-0.021535,0.035120
87.378847,0.094664,-0.028998,0.000887
87.408846,0.094758,-0.025813,0.028684
87.438826,0.094844,-0.025828,0.057533
87.468819,0.089486,-0.024743,0.044718
87.498817,0.094895,-0.026903,0.075691
87.528815,0.101269,-0.030115,0.074603
87.578813,0.108686,-0.045059,0.079861
87.598835,0.111922,-0.044007,0.092688
87.648829,0.115080,-0.058941,0.097947
87.678809,0.117091,-0.066393,0.066920
87.708808,0.119143,-0.066385,0.041277
87.738807,0.126640,-0.081343,0.073247
87.768806,0.135236,-0.103775,0.125476
87.798804,0.143854,-0.109145,0.164978
87.838797,0.130137,-0.109134,0.206651
87.878801,0.156936,-0.117758,0.277116
87.918807,0.151548,-0.125202,0.264255
87.928798,0.149487,-0.115608,0.276061
87.978789,0.142180,-0.098549,0.305005
88.008793,0.107063,-0.093140,0.305043
88.038786,0.095357,-0.081381,0.293358
88.078808,0.095238,-0.076027,0.247443
88.108807,0.088671,-0.087717,0.201436
88.138806,0.087639,-0.080253,0.203615
88.168804,0.081266,-0.080241,0.208959
88.198802,0.067397,-0.053538,0.168507
88.228801,0.058874,-0.050318,0.163184
88.278798,0.071038,-0.040820,0.303202
88.308797,0.035206,-0.044000,0.430341
88.338795,0.041988,-0.044080,0.561760
88.378777,0.039079,-0.041987,0.654728
88.408790,0.093534,-0.029334,0.691113
88.428779,0.103169,-0.091232,0.780521
88.468787,0.080878,-0.113594,0.829553
88.518775,0.030551,-0.159301,0.787643
88.548774,-0.026412,-0.072684,0.509264
88.578775,-0.102095,0.092837,0.287951
88.608771,-0.308751,0.178653,0.155983
88.638770,-0.173287,0.203908,0.207376
88.678776,-0.034861,0.110618,0.674817
88.708774,0.192246,-0.083015,1.005991
88.738772,0.259632,-0.170686,1.210638
88.778769,0.073259,-0.087949,0.744219
88.818768,0.019530,0.020163,0.098405
88.828768,0.038547,0.005211,0.066264
88.878765,0.197558,-0.210502,0.083205
88.908762,0.203809,-0.288362,0.127651
88.938761,0.181469,-0.319249,0.170225
88.968759,0.063042,-0.246408,0.005041
89.008740,0.129103,-0.189855,-0.400680
89.038735,0.024779,-0.207757,-0.372973
89.078753,0.097975,-0.276145,-0.384051
89.098736,0.131822,-0.251651,-0.487566
89.148750,0.174629,-0.252674,-0.769656
89.178747,0.043293,-0.256759,-0.533517
89.208746,0.076410,-0.189826,-0.219028
89.248730,0.044506,-0.157935,0.112378
89.278729,0.017761,-0.070560,0.324421
89.308727,0.041943,-0.006563,0.147402
89.338726,0.109744,0.011474,0.011790
89.368713,0.067738,-0.049328,0.277513
89.388730,0.082864,-0.119800,0.433118
89.428723,0.147844,-0.224486,0.565017
89.478731,0.185688,-0.263959,0.448328
89.508729,0.057504,-0.208134,0.244589
89.538727,0.051935,-0.076879,0.010250
89.568725,-0.008182,-0.031862,-0.206387
89.598701,-0.020287,-0.007237,-0.366518
89.628701,-0.047254,0.031282,-0.527638
89.668720,0.058353,0.152614,-0.602857
89.718693,0.038413,0.197237,-0.201933
89.728717,0.046113,0.167311,-0.084568
89.778693,0.130157,-0.022020,0.823634
89.808692,0.079338,-0.277957,1.217571
89.848706,0.194229,-0.415626,0.988135
89.878704,0.148090,-0.384530,0.833390
89.908703,0.047997,-0.188209,0.958435
89.938696,0.012020,-0.040962,0.862022
89.978703,0.238193,-0.167064,0.446711
90.008702,0.133512,-0.175481,0.699916
90.048700,0.075530,-0.111270,0.463084
90.078698,0.146469,-0.071005,0.638516
90.108696,0.093161,0.100688,0.770894
90.148693,0.100968,0.041228,0.247018
90.178692,0.205936,0.073957,0.417058
90.208691,0.072626,-0.004642,0.435890
90.238690,0.150927,-0.132740,0.421278
90.278687,0.074723,-0.108110,0.545373
90.298657,0.166271,-0.101913,0.531495
90.348683,0.211786,-0.050770,0.382181
90.378681,0.193862,0.097510,0.268674
90.408680,0.096015,0.028378,0.385849
90.438679,0.115397,-0.049744,0.904688
90.468676,0.204400,0.148530,0.528589
90.498675,0.132188,0.202171,0.174171
90.528672,0.170289,0.261857,0.028110
90.568671,0.309795,-0.020066,0.364162
90.598684,0.164228,-0.331435,1.183066
90.648673,-0.032810,-0.072493,0.150263
90.678681,-0.004977,0.121906,-0.737637
90.708670,-0.039156,0.073825,-0.361794
90.738668,-0.004160,-0.133518,0.544184
90.768649,0.134778,-0.340853,0.959712
90.798667,0.098476,-0.203328,1.121815
90.828667,0.135671,-0.184374,1.431764
90.868668,0.068843,-0.176798,1.506614
90.918662,0.118119,-0.284343,1.019860
90.948642,0.115938,-0.223179,0.219918
90.978659,0.127056,-0.158930,-0.409057
91.008658,0.023354,-0.147960,-0.562831
91.038657,0.047323,-0.164996,-0.716789
91.078657,-0.003418,-0.148941,-0.613048
91.108656,0.004692,-0.100000,-0.450374
91.138654,-0.004145,-0.003034,-0.314144
91.178650,0.018542,-0.006339,-0.200910
91.198651,0.018299,0.000101,-0.289558
91.248648,0.020718,-0.041378,-0.500273
91.278646,0.042854,-0.079791,-0.530407
91.308644,0.047156,-0.077675,-0.518643
91.348629,0.033463,-0.023267,-0.532231
91.368641,0.056628,-0.009410,-0.634733
91.408627,0.076722,0.025768,-0.721090
91.438625,0.063410,0.041711,-0.562866
91.468624,0.090020,-0.001015,-0.516095
91.518607,0.057948,0.027879,-0.592858
91.548632,0.122440,0.079010,-0.805217
91.578630,0.097771,0.096162,-0.885251
91.608628,0.080007,0.097213,-0.774121
91.638626,0.067180,0.112184,-0.808227
91.668625,0.083128,0.131352,-0.838042
91.698622,0.096624,0.156804,-0.627418
91.728592,0.142170,0.136298,-0.327303
91.768612,0.134110,0.157400,0.156829
91.818595,0.177587,0.162315,0.803266
91.828616,0.201127,0.119575,0.891708
91.878592,0.182511,0.042725,1.164817
91.918606,0.202532,0.033115,1.105994
91.948609,0.142341,-0.005058,0.961556
91.978603,0.140840,-0.022049,0.835384
91.998606,0.134040,-0.051834,0.732649
92.038601,0.155558,-0.065611,0.467590
92.078601,0.098645,-0.066470,0.307329
92.108600,0.058082,-0.067428,0.274211
92.148598,0.130068,-0.054722,0.120405
92.158589,0.070105,-0.105732,0.066715
92.208595,0.022993,-0.070382,-0.062363
92.248591,0.011767,-0.038261,-0.292972
92.278589,0.048895,-0.039389,-0.337863
92.308559,0.060061,-0.023499,-0.182851
92.338558,0.087994,-0.009736,-0.115469
92.378584,0.024291,-0.030956,-0.030093
92.418583,0.104111,0.020963,0.253316
92.448581,0.009759,0.041375,0.366708
92.478579,0.033941,0.054171,0.249242
92.508548,0.043737,0.070114,0.301682
92.548549,0.015979,0.100056,0.242019
92.568573,0.103019,0.087104,0.167135
92.608547,0.118319,0.121139,0.259206
92.638571,0.098658,0.147756,0.418558
92.668545,0.062706,0.094462,0.563585
92.698568,0.191172,0.071658,0.823066
92.748564,0.107350,0.023623,1.332479
92.778563,0.118115,-0.009488,1.410292
92.808562,0.152509,-0.004285,1.511817
92.838558,0.105287,-0.054252,1.445308
92.868540,0.041127,-0.094596,1.400226
92.898557,0.055483,-0.115871,1.240905
92.928550,0.153775,-0.172507,1.063205
92.978539,0.109572,-0.203251,0.915599
92.998550,0.260393,-0.254731,0.851172
93.048545,0.213163,-0.276962,0.749557
93.078543,0.074892,-0.287341,0.810435
93.108533,0.270474,-0.261060,0.669496
93.138533,0.266931,-0.177969,0.812059
93.168540,0.368788,-0.165339,0.677478
93.208538,0.272055,-0.220615,0.794728
93.238537,0.316494,-0.190802,0.666666
93.278534,0.179613,-0.243730,0.529644
93.298533,0.233787,-0.268365,0.515606
93.338531,0.213599,-0.260859,0.520994
93.368529,0.205267,-0.235271,0.553191
93.398527,0.196906,-0.163810,0.522600
93.438525,0.339000,-0.251502,0.430196
93.478493,0.218651,-0.338694,0.520565
93.508511,0.218674,-0.246963,0.421702
93.538509,0.274762,-0.242766,0.302044
93.578517,0.087478,-0.273296,0.374576
93.608492,0.028456,-0.251754,0.195207
93.638513,0.317259,-0.132978,0.143436
93.668488,0.113533,-0.302063,0.219485
93.708486,0.194437,-0.268108,0.174777
93.738508,0.132959,-0.285082,0.286887
93.768489,0.204107,-0.240411,0.171721
93.798504,0.128222,-0.249793,0.086211
93.828485,0.131510,-0.209281,0.070405
93.868501,0.176409,-0.175278,0.090883
93.918486,0.161665,-0.163538,0.131552
93.948472,0.182015,-0.154003,0.160448
93.978476,0.251664,-0.230859,0.041410
94.008475,0.130032,-0.199610,-0.079126
94.048492,0.071667,-0.172843,-0.044774
94.068473,0.098590,-0.131353,0.008871
94.108487,0.107502,-0.117396,-0.231459
94.148485,-0.037203,-0.125620,-0.188731
94.168484,0.039658,-0.114093,-0.135263
94.208481,0.092118,-0.075857,-0.083779
94.248480,0.101548,-0.040653,-0.175476
94.258479,0.099450,-0.036387,-0.170109
94.308477,0.072299,-0.044947,0.017900
94.348466,0.118351,0.038107,0.010866
94.368474,0.004021,0.080923,0.182083
94.408443,0.243744,-0.051736,0.032780
94.438442,0.084852,-0.006712,0.254237
94.478466,0.126562,0.025164,0.278977
94.518465,-0.008832,-0.018412,0.628158
94.548462,0.180363,-0.067852,0.575486
94.578461,0.184721,-0.002985,0.888902
94.608460,0.195019,-0.080819,0.862828
94.638458,0.064331,-0.107237,0.985587
94.668457,0.177428,-0.085130,1.038037
94.698455,0.100417,-0.127566,0.970509
94.728453,0.192321,-0.111653,0.708801
94.778431,0.226110,-0.177817,0.691333
94.818442,0.172891,-0.252368,0.783893
94.848445,0.091056,-0.260742,0.843700
94.858444,0.218339,-0.141655,0.898816
94.908439,0.318393,-0.268811,1.035925
94.938437,0.263767,-0.310235,0.975876
94.978420,0.228537,-0.338766,0.622066
95.008419,0.180471,-0.293832,0.518684
95.038417,0.160541,-0.282994,0.250564
95.078432,0.117271,-0.430879,-0.160529
95.108430,0.076765,-0.293178,-0.336059
95.148429,0.183465,-0.299681,-0.608578
95.178428,0.096393,-0.230189,-0.610313
95.208426,0.048836,-0.292900,-0.774121
95.238424,-0.015838,-0.190398,-0.801322
95.268414,0.016205,-0.160619,-0.802235
95.308420,0.033588,-0.163915,-0.682589
95.338418,0.001240,-0.138175,-0.848052
95.378415,0.077140,-0.138396,-0.746567
95.398414,0.234547,-0.062096,-0.537834
95.448412,0.093771,-0.179076,-0.478610
95.478411,0.153683,-0.013922,-0.574947
95.508408,0.091095,-0.082087,-0.418242
95.548397,-0.028218,-0.073275,-0.449151
95.568405,0.024493,-0.026373,-0.679694
95.608417,0.055624,0.027025,-1.012768
95.638415,0.057371,0.158111,-0.937256
95.688420,0.106025,0.226322,-1.124942
95.698413,0.129258,0.164434,-1.116740
95.748418,0.259385,0.182237,-1.061113
95.778415,0.144936,0.366767,-0.738464
95.808414,0.141075,0.356043,-0.593211
95.838412,0.115686,0.359273,-0.541901
95.868411,0.272969,0.392927,-0.324855
95.898408,0.174519,0.387721,-0.128263
95.928407,0.142048,0.431440,0.000201
95.968404,0.266995,0.526924,0.369316
96.018386,0.193251,0.470427,0.698110
96.028401,0.244352,0.440445,0.731055
96.078373,0.111252,0.340303,1.200661
96.088397,0.044179,0.319119,1.227272
96.148387,0.114884,0.282622,1.414035
96.178393,0.136575,0.231307,1.606072
96.198378,0.168471,0.157642,1.676178
96.238389,0.219285,-0.006694,1.769287
96.278374,0.196201,-0.021632,1.900632
96.308385,0.223407,-0.160108,1.546203
96.348383,0.186613,-0.233529,1.433619
96.378380,0.275321,-0.210142,1.162337
96.398379,0.305143,-0.325238,0.943730
96.438350,0.247519,-0.359221,0.940352
96.478372,0.386693,-0.378509,0.504279
96.508349,0.376042,-0.346484,0.465993
96.538348,0.379239,-0.443385,0.223987
96.578362,0.263577,-0.475015,0.036859
96.608360,0.305350,-0.447241,-0.268578
96.638359,0.145214,-0.359342,-0.512735
96.668337,0.173960,-0.324031,-0.910017
96.708357,0.097003,-0.206649,-0.789685
96.748359,0.148983,-0.168508,-0.542673
96.778358,0.094855,-0.133389,-0.169573
96.808356,0.127156,-0.264724,0.103224
96.838354,0.122254,-0.149755,0.466067
96.878349,0.165565,-0.202239,0.768143
96.918339,0.133189,-0.251162,0.680268
96.948351,0.259678,-0.310079,0.676708
96.978324,0.215554,-0.394170,0.617491
97.008348,0.142166,-0.363976,0.253328
97.038343,0.202983,-0.372492,-0.050177
97.078341,-0.017777,-0.307935,-0.245298
97.108339,0.035053,-0.297320,-0.393769
97.138324,0.069528,-0.185462,-0.388888
97.168337,0.037674,-0.125671,-0.429154
97.198335,-0.050830,-0.079582,-0.526110
97.248333,0.044971,0.018166,-0.292670
97.278331,0.178816,0.118009,-0.157527
97.308328,0.119601,0.093716,-0.347833
97.338326,-0.075419,0.118543,-0.078397
97.368325,0.131849,0.073334,-0.144939
97.408300,0.055801,0.071271,0.062349
97.438312,0.075552,0.092464,0.233415
97.468310,0.089820,0.087203,0.026101
97.518317,0.034023,0.108733,-0.142585
97.528308,0.092612,0.139530,-0.169141
97.578314,0.171828,0.139457,-0.382853
97.608311,0.010607,0.195186,-0.240402
97.638310,0.167225,0.168150,-0.175412
97.668309,0.017077,0.115157,-0.120107
97.708301,0.160710,0.312187,-0.385106
97.738299,0.051022,0.362397,-0.094182
97.778302,0.019768,0.271861,-0.114973
97.818299,0.065157,0.367475,0.353529
97.848297,0.134574,0.249949,0.560149
97.878296,0.204565,0.263530,0.805953
97.908295,0.204204,0.128121,0.842605
97.938292,0.016453,0.142294,1.062831
97.968290,0.340118,0.299437,0.874500
97.998289,0.137418,0.117556,0.952615
98.028287,0.221573,-0.029842,1.137697
98.078261,0.051805,-0.163609,0.779067
98.118268,-0.095277,-0.231521,0.808646
98.128253,0.135631,-0.106150,0.615888
98.178266,0.071219,-0.128143,0.109330
98.208265,0.267573,-0.148925,0.281192
98.248256,0.165235,-0.275610,0.387367
98.278247,0.349124,-0.108503,0.089072
98.308246,0.218574,-0.206237,-0.015076
98.338252,0.331034,-0.279134,0.291146
98.368243,0.239442,-0.234123,0.230513
98.418265,0.250277,-0.209644,0.264836
98.448263,0.168228,-0.280917,0.326434
98.478262,0.318282,-0.196975,0.203987
98.518235,0.102101,-0.360751,0.381571
98.538258,0.231649,-0.119023,0.339062
98.578234,0.056280,-0.161346,0.492730
98.608225,0.142972,-0.209441,0.342860
98.638228,-0.044100,-0.226140,0.469960
98.678246,0.220953,-0.152058,0.361321
98.718248,0.292694,-0.312113,0.326233
98.748246,0.187383,-0.231891,0.265797
98.778244,-0.044121,-0.300629,0.193887
98.808242,0.197516,-0.249963,0.115042
98.838242,0.159954,-0.298897,0.073111
98.868240,0.189811,-0.320130,-0.243278
98.898237,0.130213,-0.343467,-0.207064
98.928236,0.239422,-0.292612,-0.063636
98.958234,0.011126,-0.207757,-0.309931
99.018230,-0.212014,-0.112394,-0.268752
99.048200,0.065423,-0.268680,-0.240828
99.078201,-0.057411,-0.267447,-0.016415
99.088226,0.292666,-0.271400,-0.085970
99.148223,-0.057599,-0.370534,-0.670881
99.168196,-0.063283,-0.224677,-0.249104
99.208219,0.136141,-0.324030,-0.739054
99.238218,-0.179261,-0.107093,-0.359550
99.278191,0.148516,0.017173,-0.914546
99.318191,-0.172534,0.109373,-0.498330
99.328212,0.101878,0.067202,-0.546708
99.368192,-0.073251,-0.044321,-0.587881
99.408209,0.101608,0.288943,-0.539079
99.438207,0.170765,0.237769,-0.852436
99.478204,0.182170,0.348554,-0.727888
99.508202,-0.035014,0.276330,-0.280547
99.538196,0.217561,0.335282,0.084063
99.578171,0.169083,0.182949,0.072552
99.608178,0.228195,0.340419,0.429202
99.638195,0.283693,0.226312,0.250129
99.668193,0.035545,0.262974,0.542080
99.708191,-0.013300,0.036033,0.494900
99.748188,0.018683,-0.036580,0.592792
99.778175,0.098960,-0.042880,0.029658
99.808186,-0.053144,0.064105,-0.043442
99.838184,0.077902,-0.037363,-0.253450
99.858183,-0.098910,0.130340,-0.114654
99.918179,0.017667,-0.034278,0.250896
99.948177,0.025623,-0.047003,0.077733
99.978163,0.165112,-0.040919,0.073460
99.988176,-0.193544,-0.088138,0.182269
100.038160,0.056605,0.080912,-0.035896
100.068145,0.079288,0.030499,0.486300
100.108169,-0.021649,0.046866,0.182970
100.138166,-0.090981,-0.015892,0.214696
100.168164,0.093775,0.023243,-0.000963
100.218146,0.308846,-0.296004,0.012190
100.248146,-0.097036,-0.098068,0.421527
100.278150,0.061187,-0.041820,0.214517
100.308148,0.218473,-0.157153,-0.105625
100.338148,0.281246,0.064409,-0.023219
100.378153,0.255010,-0.074981,-0.444954
100.408150,0.152808,0.098767,0.068888
100.438149,-0.161911,-0.066825,0.054163
100.468147,0.448965,-0.304608,-0.476179
100.518144,-0.091859,0.363819,-0.164659
100.528124,0.402717,0.219140,-0.884648
100.578141,-0.043680,0.288999,0.011215
100.608153,0.142490,0.207713,-0.303404
100.648135,-0.107707,0.341259,0.258333
100.678144,0.275901,0.214652,0.150699
100.708144,0.260617,0.180615,0.063970
100.728145,-0.193097,0.206909,0.699959
100.778143,0.099301,0.147824,0.277521
100.818141,0.269338,0.089718,0.593427
100.848139,0.180712,-0.066668,0.335088
100.878137,0.130476,0.123171,0.405594
100.908135,0.207650,0.004686,0.358980
100.948121,0.260930,-0.121134,0.163816
100.968132,0.265297,-0.051828,0.119320
100.998130,0.282869,-0.117023,0.374320
101.028129,0.183668,-0.024143,0.561836
101.078126,0.037936,-0.181532,0.434926
101.108124,0.099269,-0.110133,0.210927
101.148121,0.141437,-0.204027,0.179415
101.178102,0.256877,-0.117959,0.229010
101.208119,0.092035,-0.112286,0.286778
101.248091,0.038709,-0.279621,0.451483
101.278107,0.035376,-0.351058,0.488487
101.308095,0.232768,-0.396197,0.323648
101.338109,0.112789,-0.312606,-0.016704
101.368108,-0.154612,-0.351446,-0.022196
101.408098,0.232851,-0.185899,-0.248961
101.448103,-0.177711,-0.159444,-0.136529
101.458104,0.222327,-0.124028,-0.279604
101.508101,-0.086423,-0.098802,-0.300761
101.548099,0.153644,-0.221744,-0.702168
101.568098,0.083396,-0.010562,-0.583459
101.608095,0.133417,-0.048005,-0.547349
101.638092,0.126678,0.199189,-0.240408
101.678088,0.170421,0.082807,-0.075446
101.708089,-0.030929,0.191906,0.115388
101.738087,-0.036969,0.074702,0.012173
101.768085,0.218242,0.239342,0.067508
101.818056,0.071012,0.060520,0.176612
101.848055,0.209081,0.101866,0.012263
101.878052,-0.131883,0.128100,0.255030
101.908049,0.053207,-0.122784,0.132870
101.938050,0.196003,-0.038857,0.075601
101.978063,0.300706,-0.108311,-0.079733
102.008055,0.100212,-0.169674,-0.116351
102.038061,0.034053,-0.133234,-0.206954
102.078060,-0.012377,-0.102265,-0.103132
102.108043,0.194362,-0.067559,-0.083758
102.148064,0.121959,-0.011037,0.206124
102.178062,0.182895,-0.080549,0.369202
102.208061,0.065475,-0.091969,0.282622
102.238058,0.168704,-0.064459,0.233599
102.288032,0.044450,-0.095166,0.376634
102.318050,0.025837,-0.129174,0.245031
102.348047,0.122603,-0.104837,0.174623
102.378037,0.141504,-0.119945,0.459815
102.408021,0.019134,-0.253909,0.284948
