time_tick,acc_X_value,acc_Y_value,acc_Z_value
0.023187,-0.646458,-3.561502,-9.098590
0.056829,-0.587199,-3.524091,-9.095448
0.090092,-0.538415,-3.496856,-9.096645
0.123594,-0.656334,-3.408717,-9.157550
0.156970,-0.677134,-3.404078,-9.129417
0.190301,-0.691201,-3.404227,-9.120139
0.223141,-0.653640,-3.398242,-9.123282
0.256870,-0.562807,-3.448821,-9.129866
0.290269,-0.517316,-3.474111,-9.110113
0.323582,-0.392513,-3.551027,-9.089313
0.356852,-0.284920,-3.619115,-9.079586
0.390167,-0.151738,-3.709200,-9.053099
0.423263,-0.099662,-3.724463,-9.057139
0.456849,-0.101009,-3.736135,-9.053249
0.490200,-0.154432,-3.677475,-9.064023
0.523240,-0.264120,-3.613279,-9.074348
0.556848,-0.368271,-3.569882,-9.090809
0.590185,-0.549938,-3.488027,-9.106522
0.623428,-0.624909,-3.431911,-9.103828
0.657173,-0.702574,-3.376543,-9.120438
0.690215,-0.759438,-3.354396,-9.136450
0.722848,-0.834409,-3.335242,-9.094999
0.756781,-0.836504,-3.341677,-9.302255
0.790183,-0.924793,-3.388365,-9.094999
0.823656,-0.812860,-3.308905,-9.095598
0.856897,-0.760485,-3.377890,-9.124628
0.890183,-0.500256,-3.482341,-9.078838
0.923733,0.130040,-3.718478,-8.952090
0.956787,0.148147,-3.935011,-8.910639
0.990139,-0.142310,-3.896253,-8.922161
1.023144,-0.018705,-3.716682,-9.200048
1.056940,-0.264569,-3.626896,-9.036339
1.090213,-0.392813,-3.552673,-9.084524
1.123308,-0.263521,-3.685556,-9.068213
1.157036,-0.464043,-3.504787,-9.119989
1.190216,-0.412266,-3.471118,-9.123431
1.223404,-0.710654,-3.364422,-9.126723
1.256792,-0.951879,-3.291247,-9.116398
1.290067,-0.824233,-3.269848,-9.171915
1.323488,-1.128308,-3.155371,-9.161291
1.356802,-1.101222,-3.160908,-9.197654
1.390065,-0.946192,-3.234083,-9.182690
1.423341,-1.040318,-3.314142,-9.123282
1.456810,-0.909231,-3.399738,-9.126574
1.490136,-0.786823,-3.430864,-9.111759
1.523488,-0.783231,-3.437448,-9.108916
1.556753,-0.638826,-3.485932,-9.093353
1.590066,-0.589294,-3.551626,-9.088415
1.622835,-0.525995,-3.640813,-9.050705
1.656737,-0.463444,-3.596369,-9.075845
1.690082,-0.405981,-3.605946,-9.096196
1.723102,-0.402689,-3.658920,-9.052201
1.756767,-0.442195,-3.603253,-9.079436
1.790158,-0.703621,-3.605198,-9.030054
1.823733,-0.748664,-3.454058,-9.087517
1.856796,-0.900551,-3.345418,-9.150816
1.890173,-0.891722,-3.297083,-9.138994
1.923142,-0.818697,-3.277779,-9.174310
1.957154,-0.617427,-3.321624,-9.151863
1.990192,-0.484394,-3.373850,-9.167127
2.022902,-0.419449,-3.437598,-9.126125
2.057346,-0.312903,-3.496856,-9.099488
2.090178,-0.335200,-3.513167,-9.124179
2.123239,-0.304673,-3.525438,-9.152612
2.156861,-0.262923,-3.524690,-9.091557
2.190878,-0.321283,-3.556265,-9.074348
2.223247,-0.450126,-3.547136,-9.117445
2.256864,-0.411668,-3.523942,-9.096495
2.290177,-0.533926,-3.504787,-9.106671
2.324454,-0.719633,-3.472016,-9.105923
2.356890,-0.717688,-3.428470,-9.120887
2.390201,-0.886634,-3.365919,-9.118493
2.423281,-0.824832,-3.401085,-9.123581
2.456865,-0.704968,-3.425477,-9.128968
2.490178,-0.653042,-3.460643,-9.102481
2.523954,-0.508038,-3.488776,-9.108168
2.556792,-0.466138,-3.523642,-9.088115
2.590184,-0.383535,-3.553122,-9.119391
2.623225,-0.361837,-3.611782,-9.103678
2.657390,-0.287165,-3.654281,-9.053847
2.690883,-0.308115,-3.648445,-9.064472
2.723517,-0.344927,-3.630039,-9.058336
2.757224,-0.409722,-3.611034,-9.073002
2.790254,-0.535871,-3.562999,-9.082728
2.823519,-0.561760,-3.524091,-9.094999
2.856808,-0.548890,-3.490272,-9.100386
2.890128,-0.764227,-3.404227,-9.127920
2.924184,-0.646607,-3.413805,-9.109215
2.956725,-0.634785,-3.428021,-9.130165
2.990278,-0.615033,-3.474111,-9.137348
3.023465,-0.458506,-3.523343,-9.081531
3.057117,-0.426632,-3.555367,-9.085871
3.090202,-0.485292,-3.557462,-9.106073
3.123375,-0.431720,-3.547735,-9.097693
3.156834,-0.462995,-3.562999,-9.098590
3.190356,-0.423639,-3.590982,-9.094550
3.223913,-0.353606,-3.593825,-9.062975
3.256860,-0.461948,-3.562550,-9.085272
3.290613,-0.454017,-3.557462,-9.089163
3.323296,-0.405682,-3.562250,-9.074947
3.356868,-0.404635,-3.566889,-9.083327
3.390224,-0.377998,-3.583051,-9.064921
3.423699,-0.281478,-3.625100,-9.068512
3.456932,-0.200073,-3.666851,-9.086918
3.490222,-0.126149,-3.677924,-9.030952
3.523438,-0.029779,-3.702466,-9.079586
3.556873,-0.114028,-3.675530,-9.040529
3.590294,-0.110885,-3.625400,-9.078838
3.623519,-0.137073,-3.637970,-9.069709
3.656873,-0.190795,-3.580058,-9.079436
3.690706,-0.077066,-3.639616,-9.063873
3.722965,-0.089187,-3.647846,-9.080633
3.756863,-0.109239,-3.647696,-9.034244
3.790208,0.053273,-3.582602,-9.067914
3.823616,-0.213840,-3.558060,-9.118044
3.857018,-0.034867,-3.564495,-9.097992
3.890438,-0.068387,-3.558210,-9.070158
3.923218,-0.171341,-3.556115,-9.082429
3.956497,0.030378,-3.587540,-9.106522
3.990254,-0.032772,-3.639915,-9.067165
4.022901,-0.193638,-3.655478,-9.027211
4.056838,-0.029929,-3.673285,-9.051902
4.090100,-0.135577,-3.671639,-9.028707
4.123147,-0.159070,-3.699473,-9.055194
4.156849,-0.124054,-3.776988,-8.982318
4.190196,0.078862,-3.768159,-9.016137
4.223226,-0.035615,-3.744964,-9.028558
4.256904,0.083351,-3.746461,-9.092754
4.290182,0.083650,-3.689746,-9.056541
4.322953,-0.018406,-3.668646,-9.051752
4.357232,-0.015264,-3.666551,-9.065669
4.390196,-0.033071,-3.682114,-9.029156
4.423227,0.002095,-3.658471,-9.052650
4.456847,0.031874,-3.695283,-9.101733
4.490190,-0.568194,-4.473127,-8.646669
4.523089,0.078263,-3.874106,-9.172963
4.556866,0.050729,-3.717580,-9.082429
4.590232,0.557869,-3.383128,-9.162638
4.623222,0.298687,-3.677326,-9.030802
4.656936,0.065993,-3.683611,-9.088714
4.690505,1.203429,-3.607293,-9.206483
4.723018,0.389820,-4.066996,-8.989351
4.756853,0.248557,-3.923488,-8.890587
4.790193,0.473770,-3.798088,-8.951043
4.822924,0.556073,-3.935460,-9.087667
4.856769,0.928235,-3.680319,-8.856618
4.890226,0.687759,-3.920944,-9.158897
4.923232,0.192890,-3.889819,-9.115650
4.956852,0.284621,-3.951322,-9.184336
4.990203,0.504446,-3.708452,-9.096795
5.023096,-0.586451,-3.299328,-9.032448
5.056924,0.453418,-3.700221,-7.719631
5.091399,1.031638,-3.935011,-8.969149
5.123111,1.023857,-3.901192,-8.714008
5.156789,3.423082,-3.790157,-9.155604
5.190143,1.772670,-3.258475,-9.118493
5.223717,0.756295,-2.986275,-9.482874
5.256792,-0.292402,-2.525823,-9.531956
5.290180,-2.283851,-1.937427,-9.449653
5.322981,-3.079502,-2.549317,-9.837827
5.356789,-0.666809,-2.921928,-9.449054
5.390166,-0.811813,-3.223908,-9.270979
5.423252,0.306618,-3.759629,-9.210224
5.456846,1.136389,-3.997113,-8.803345
5.490211,-1.597588,-3.825472,-8.872779
5.523274,-0.060306,-4.034972,-8.996684
5.557217,-0.219825,-3.855551,-9.123431
5.589515,-2.353135,-3.262665,-9.069859
5.623538,-1.476826,-3.137863,-9.343706
5.657101,-2.841420,-2.761661,-9.524175
5.690250,-2.779917,-2.442921,-9.606928
5.723881,-0.023494,-2.991512,-9.305696
5.756855,-0.044444,-2.964726,-9.327395
5.790179,0.921052,-3.254435,-8.966306
5.823423,2.297468,-3.995317,-8.801998
5.856895,1.009042,-4.181772,-9.217557
5.890309,2.004617,-3.957457,-8.819057
5.923672,2.308542,-4.189105,-9.179697
5.956847,-0.058061,-3.768009,-9.042325
5.990183,0.437257,-3.755439,-8.834920
6.024277,-0.164607,-3.614476,-9.445912
6.056846,0.672944,-3.207597,-9.022572
6.090184,0.935119,-3.539205,-8.973788
6.122991,1.434477,-3.903137,-8.911986
6.156783,1.345589,-3.530077,-8.777606
6.190181,1.686775,-3.902538,-8.882207
6.223574,0.063149,-3.940248,-9.255117
6.256934,0.201868,-3.827268,-8.733013
6.290223,-0.054320,-3.282568,-9.014790
6.322978,-1.706379,-3.650689,-8.626916
6.356851,-1.725234,-3.771900,-9.266939
6.390690,-0.785027,-3.381631,-9.120139
6.423925,-0.030378,-2.633267,-9.202143
6.456943,1.438667,-1.659989,-10.346613
6.490242,2.149322,-1.371777,-10.232585
6.523523,0.955171,-2.376629,-9.529113
6.556975,-2.570118,-2.696267,-9.321558
6.590398,-5.366495,-3.402881,-9.293725
6.624187,-1.137735,-4.294304,-8.489394
6.656754,1.749326,-4.670955,-8.964810
6.690123,-2.776326,-4.475372,-8.437767
6.723332,-2.159647,-4.927443,-8.310271
6.756962,0.261127,-3.477253,-8.516030
6.790193,-1.984116,-3.152977,-9.351487
6.822932,-2.267839,-2.885415,-9.187628
6.856891,-2.570267,-2.786950,-8.175892
6.890404,-2.368399,-4.153639,-9.401617
6.923063,-0.561760,-5.196800,-7.348367
6.956889,-1.607016,-3.573922,-9.288338
6.990213,-1.898670,-4.474623,-10.262813
7.023226,-1.089101,-2.330689,-8.531743
7.056938,-2.630873,-2.261255,-8.034180
7.090607,-2.395933,-3.250394,-9.783656
7.123836,-1.027897,-3.333596,-10.416646
7.156826,-1.923660,-3.063939,-9.843663
7.190180,-2.117597,-2.519239,-10.250691
7.223534,-1.977831,-3.788062,-8.106907
7.256007,-1.735858,-3.052417,-8.845694
7.290090,-0.684616,-4.978172,-9.921178
7.323149,-1.646372,-5.010944,-10.954313
7.356827,-2.301509,-3.728953,-8.670312
7.390108,-1.242036,-4.106502,-7.144403
7.423487,0.520159,-3.413056,-8.655797
7.456842,-0.378297,-3.451664,-8.513786
7.490120,0.288212,-2.262751,-9.987021
7.523234,-0.668455,0.339540,-9.420921
7.556625,-0.734298,-0.141712,-11.108595
7.590550,-2.474645,-0.984950,-10.100749
7.623333,-1.747830,-3.857047,-8.737203
7.656922,-0.340438,-4.307173,-7.485140
7.690178,-1.350827,-3.772199,-9.752081
7.722940,-0.821240,-1.586215,-10.839686
7.756957,-0.479606,-1.451537,-10.820532
7.790224,-1.059322,-2.731732,-9.062676
7.823310,-1.594296,-3.461092,-8.453330
7.856873,-0.717089,-4.064153,-9.899928
7.890247,-1.414724,-3.650540,-10.434303
7.923139,4.790370,-2.668433,-11.620373
7.957084,1.669566,-2.580593,-9.428254
7.990201,-0.156676,-3.273140,-9.730084
8.023202,0.905789,-4.662126,-9.834834
8.056840,1.102120,-1.614198,-10.621357
8.090134,0.759288,-1.038672,-10.686452
8.123982,-2.487964,-2.199302,-9.133158
8.156764,1.560776,-3.752895,-8.493135
8.190114,1.750074,-3.823377,-7.615629
8.223047,1.857219,-3.696330,-8.931140
8.257123,0.337445,-3.065436,-9.907111
8.290220,2.965624,-3.350206,-10.240067
8.325087,-1.422805,-4.282931,-8.306830
8.356757,-0.892022,-4.269164,-8.862753
8.390115,-0.068836,-0.995425,-8.333316
8.423246,3.381631,-4.992837,-9.572809
8.456846,-1.778357,-4.416113,-8.478769
8.490144,-3.468275,-3.163602,-11.778696
8.523275,2.055346,-3.504937,-7.637028
8.556901,5.492794,-3.844028,-8.332568
8.590256,0.537517,-3.618366,-8.281839
8.623246,-4.390075,-2.420175,-9.733525
8.656873,-1.011437,-3.095514,-9.549614
8.690181,0.229253,-2.007460,-8.529798
8.723159,0.092030,-3.679421,-8.472784
8.756848,0.170743,-3.766663,-9.774528
8.790317,-1.398563,-3.031018,-9.862667
8.823516,-0.632690,-4.402795,-8.240388
8.856715,1.967057,-7.024390,-6.377333
8.890419,-1.518277,-6.640705,-9.317518
8.923313,-1.905853,-4.916968,-9.225488
8.956851,-0.227457,-3.731646,-8.937425
8.990187,0.914169,-6.294581,-7.411217
9.023137,2.178951,-6.572917,-8.484905
9.056850,-0.043247,-4.814612,-9.418527
9.090193,-1.100923,-1.920069,-10.398239
9.123378,0.516867,-1.104365,-9.829447
9.156767,-1.736457,-0.023644,-8.942662
9.190099,-1.601628,-1.543866,-10.097607
9.223128,0.565501,-3.170335,-9.525372
9.256780,-0.013318,-3.417695,-8.638887
9.290203,0.291953,-3.690345,-8.277350
9.322947,1.080272,-3.073068,-9.533902
9.356853,1.425199,-2.929560,-8.470838
9.389848,0.352409,-3.101949,-9.288038
9.423226,0.844884,-3.379387,-9.818523
9.456850,2.794133,-3.608191,-10.102395
9.494263,1.521569,-3.317135,-9.381565
9.523106,0.501902,-3.725660,-9.588222
9.556849,2.933151,-2.692974,-9.496940
9.590115,0.485891,-3.584996,-9.793532
9.623415,-0.275942,-3.684808,-8.670013
9.656878,0.761533,-3.209093,-8.606864
9.690190,2.296720,-2.904570,-10.158212
9.723050,0.854162,-3.776090,-9.114303
9.756849,0.165655,-3.597865,-9.337870
9.790631,1.134593,-1.586963,-10.193678
9.823154,2.192718,-1.677647,-9.650474
9.856960,2.092457,-3.579160,-9.313627
9.890186,3.064538,-3.903287,-9.021973
9.923238,1.535636,-3.990229,-9.430648
9.956843,-0.429775,-2.438282,-9.316770
9.990270,5.046708,0.309911,-10.390458
10.023507,6.907518,-1.479370,-9.272027
10.056849,1.129655,-3.568086,-8.708621
10.089616,-2.046068,-5.642287,-8.230661
10.123213,2.499636,-4.307921,-9.412092
10.156849,1.412480,-3.548184,-9.401318
10.189967,-0.045043,-3.366817,-8.590553
10.223203,1.600581,-3.651288,-8.956579
10.256850,0.682521,-3.095514,-9.702849
10.289739,1.695006,-3.352750,-9.076593
10.323214,2.293577,-3.303967,-8.940717
10.356849,0.420497,-3.374448,-8.433876
10.389730,1.353670,-3.752596,-9.446660
10.423164,-1.098828,-3.562550,-9.504123
10.457440,-0.604558,-3.401534,-9.008206
10.489679,0.933772,-3.211038,-8.849734
10.523284,0.968489,-3.128735,-9.010451
10.556846,0.140964,-4.204817,-7.936463
10.593866,-0.224015,-4.210055,-8.173797
10.622987,-0.437107,-4.328273,-8.714756
10.656783,0.639724,-4.781840,-8.833124
10.690189,1.336611,-6.096753,-8.273759
10.723936,-0.175980,-5.654408,-8.890587
10.756779,-1.191607,-4.331864,-8.040914
10.790192,-1.422057,-4.147953,-9.399373
10.822917,1.038223,-3.446277,-9.433641
10.856794,1.182927,-3.434156,-9.249730
10.890091,0.730108,-3.195924,-9.597051
10.922834,0.565052,-1.885950,-8.966007
10.956780,1.734062,-2.219803,-9.222944
10.990155,2.284300,-2.618153,-9.631020
11.023532,-0.384732,-2.716319,-9.698659
11.056767,-2.090811,-2.503975,-9.291031
11.090091,-0.417055,-3.225853,-9.675314
11.122941,-0.278934,-2.389199,-9.394135
11.156783,-0.979712,-2.886762,-9.449204
11.190441,0.016311,-3.005429,-9.373335
11.222638,1.294561,-3.025182,-9.107120
11.256782,0.750310,-3.473512,-9.688932
11.290389,-2.036491,-4.301337,-9.328442
11.323153,1.267027,-4.207810,-9.511455
11.356787,2.003120,-4.757299,-8.540123
11.390186,2.073602,-3.429816,-8.154343
11.422832,1.387938,-3.678822,-10.204601
11.456851,2.204839,-3.193680,-7.868825
11.490183,1.533541,-3.905980,-7.961005
11.522924,1.812176,-3.989182,-8.812174
11.556847,-0.575078,-5.390887,-9.512503
11.590183,1.046902,-1.858715,-11.386182
11.624574,1.293364,-0.411368,-10.342423
11.656771,-2.851596,-3.638419,-9.320361
11.690123,1.331523,-4.216639,-7.769462
11.723166,3.058702,-3.252639,-7.946040
11.756848,-1.462012,-3.779382,-7.900100
11.790122,2.943177,-3.042391,-9.301806
11.823578,4.175936,-4.205116,-9.407005
11.856861,-0.423340,-4.045747,-9.334727
11.890179,-0.180469,-4.229508,-8.151650
11.923528,-0.382787,-4.817455,-8.355314
11.956723,1.846893,-3.245756,-8.864100
11.990193,-0.046988,-2.540937,-9.739511
12.023711,-0.695091,-2.512056,-9.570714
12.056798,-0.551883,-3.465431,-9.093054
12.090284,-1.881760,-2.836183,-9.599146
12.122821,-1.443007,-2.678908,-10.164348
12.156774,-0.257236,-4.515027,-8.660735
12.190114,0.063449,-3.517357,-9.358071
12.223528,0.468981,-3.300375,-9.005961
12.256851,0.918209,-2.831843,-10.320724
12.289706,-0.267861,-3.320278,-8.923508
12.323157,0.904442,-3.166445,-9.103828
12.355907,-0.060007,-3.655478,-8.752766
12.389758,0.793856,-3.338085,-8.723436
12.423535,0.520009,-2.892299,-9.671873
12.456864,1.150754,-2.509363,-9.107569
12.490701,1.095237,-2.568621,-9.388150
12.523796,1.249070,-3.390460,-9.215611
12.556783,2.788596,-2.782012,-9.214863
12.590166,2.683996,-4.465794,-9.275618
12.622685,0.933772,-4.722432,-9.054595
12.656786,0.447432,-4.413270,-9.969812
12.690285,1.329727,-3.287207,-8.719395
12.724027,1.485805,-3.998160,-8.206270
12.756756,-0.156377,-3.881139,-8.735257
12.790115,2.686989,-2.123882,-8.913931
12.823135,3.989481,-1.854525,-10.045681
12.856906,2.352537,-3.313693,-8.587859
12.890117,1.052738,-3.516310,-8.959871
12.922962,2.794133,-3.553721,-8.896423
12.956848,0.386677,-4.660330,-8.832525
12.990187,-0.415110,-2.933900,-9.436634
13.023059,0.988841,-2.836781,-10.349755
13.056848,1.107208,-2.111612,-9.598398
13.090188,0.934670,-2.315126,-9.560838
13.123236,2.759117,-3.141305,-9.288487
13.156223,3.347962,-3.908075,-8.989501
13.190262,2.525973,-4.133886,-8.700091
13.223763,2.510560,-4.127152,-7.587346
13.256344,2.686839,-5.127815,-7.936912
13.290181,1.902710,-3.844028,-7.954869
13.323401,1.593398,-3.731197,-9.393537
13.356821,0.572384,-3.625400,-9.639400
13.390225,1.154495,-4.056671,-8.336609
13.423057,1.962418,-4.326327,-8.784041
13.456778,1.316708,-4.554832,-9.106073
13.490181,0.447732,-3.576766,-9.102780
13.522873,0.288811,-3.289601,-9.931353
13.557070,1.870986,-2.186583,-9.182241
13.590120,2.313181,-3.229594,-9.298513
13.622908,2.485120,-3.358137,-9.439926
13.656748,1.797361,-3.192483,-8.420708
13.690093,1.925306,-3.565094,-8.525159
13.723084,1.992346,-4.177133,-8.409784
13.756159,1.487601,-5.477530,-7.238828
13.790081,1.643080,-3.405275,-10.386867
13.823122,1.270618,-2.361515,-8.852278
13.856791,-0.795352,-3.098208,-9.069410
13.890092,-0.360789,-3.587540,-8.923209
13.923144,1.635747,-3.580806,-8.916176
13.956846,2.116699,-4.047692,-9.338917
13.990138,2.374385,-4.534930,-8.221084
14.023270,1.579481,-5.142779,-8.511691
14.056986,1.228868,-5.898177,-8.633051
14.090141,0.992432,-4.936870,-9.170718
14.123233,1.459767,-4.566205,-8.729721
14.156847,1.340502,-5.233163,-7.887829
14.190207,0.744623,-3.870814,-9.223243
14.222950,1.362649,-1.437620,-10.282416
14.256133,0.213241,0.261277,-10.181257
14.290207,0.086494,-0.281179,-9.704345
14.323252,0.052525,-1.665376,-8.460663
14.356786,0.222968,-4.845289,-8.142671
14.390209,-1.666573,-6.304457,-7.847276
14.422914,0.173137,-5.379514,-7.734745
14.456845,2.963529,-3.211338,-9.156802
14.490195,2.406408,-2.479284,-9.190172
14.523437,1.023109,-2.972208,-9.450401
14.556852,0.801188,-4.492132,-8.527553
14.590197,0.297939,-5.729978,-7.931824
14.622843,-0.482449,-4.650604,-8.008741
14.656782,1.555987,-3.886976,-8.713410
14.690268,2.270084,-3.221813,-8.942812
14.722965,1.185621,-3.241266,-9.481976
14.756781,0.029629,-3.991127,-9.262898
14.790179,0.071080,-4.499314,-8.237695
14.823143,0.488435,-3.554170,-9.700005
14.856926,-0.816751,-3.871263,-9.074348
14.892333,-0.344179,-2.807451,-9.548567
14.923488,1.610906,-3.282867,-9.355976
14.956475,0.419748,-3.534566,-8.655348
14.990199,-0.325174,-3.348411,-9.332931
15.023491,-0.510582,-3.187544,-7.804179
15.057035,0.268759,-1.694856,-8.028793
15.090384,1.104515,-3.658171,-7.685362
15.122850,0.174334,-4.261532,-8.785537
15.156622,-0.341336,-4.808776,-7.526741
15.190182,1.133096,-3.071272,-9.701652
15.223557,1.747530,-3.672088,-8.849435
15.257102,0.227906,-2.657509,-9.002669
15.290053,-0.878105,-3.795993,-9.299711
15.322980,0.200671,-2.910855,-9.740858
15.356838,-0.149493,-4.549445,-8.886546
15.390218,-0.585553,-3.567637,-8.511541
15.423588,0.173885,-2.457586,-9.139144
15.456798,1.306533,-2.308392,-9.544227
15.490182,0.639724,-2.725597,-9.636706
15.523236,-0.927936,-3.771302,-9.747442
15.556800,1.451387,-3.489973,-9.201096
15.590281,1.166616,-3.435353,-9.259906
15.623012,1.476677,-2.849351,-8.666272
15.656779,0.807473,-2.501282,-11.201223
15.690277,1.627517,-2.993458,-9.774977
15.722878,0.934371,-3.424579,-7.494717
15.756783,1.484907,-2.726794,-9.924919
15.790177,0.184809,-6.559449,-9.101583
15.822776,4.494077,-2.169972,-9.991360
15.856783,1.674804,-4.053229,-7.442043
15.890199,0.265766,-4.792465,-9.621443
15.922858,1.874128,-3.671340,-7.191840
15.956783,1.930693,-3.171832,-10.343769
15.990172,0.358993,-2.430650,-9.673369
16.024595,0.867480,-5.643933,-8.715804
16.056758,-3.545341,-3.268801,-6.801721
16.090204,-0.175531,-6.321517,-11.043051
16.123177,1.728226,-1.630061,-9.155604
16.156845,1.261640,-3.625250,-11.027189
16.190182,1.197742,-5.164178,-7.799241
16.223307,0.905340,-4.607955,-8.412627
16.256845,1.542669,-4.883448,-8.176191
16.290182,0.370366,-4.127302,-8.096432
16.323276,-0.073475,-3.941446,-8.718048
16.356845,0.588995,-2.069412,-10.345565
16.390182,0.233144,-3.101051,-8.061116
16.423391,0.933024,-3.163901,-8.964061
16.456847,0.496964,-3.639017,-9.509211
16.489565,-0.453717,-5.157893,-8.954784
16.522662,-1.354718,-4.888835,-6.791844
16.557021,0.096071,-4.392020,-8.886696
16.589923,-0.990038,-3.422484,-9.889603
16.622922,-2.463572,-5.677603,-9.855784
16.656854,0.614883,-4.369275,-9.228331
16.689565,0.654987,-5.006005,-9.030952
16.723048,-0.438753,-5.163729,-8.060368
16.756845,0.244517,-2.802513,-9.634312
16.789910,0.593185,-2.819273,-9.398475
16.823154,-0.312006,-3.155820,-10.624200
16.856182,-1.428192,-4.342489,-8.855870
16.889804,0.976271,-4.376607,-9.008954
16.922841,0.472423,-3.720872,-9.105624
16.956860,0.666809,-1.149707,-10.453009
16.990112,0.297939,-2.868655,-10.435201
17.022837,0.864637,-4.027041,-8.010986
17.056748,-0.174334,-5.089357,-8.351124
17.090091,-0.232246,-3.557312,-8.983216
17.122790,1.601778,-0.714096,-10.720870
17.156441,1.129056,-2.180148,-8.455126
17.189226,1.226324,-2.844563,-10.469619
17.222804,0.744174,-3.136217,-8.507202
17.256778,2.410299,-2.033947,-9.753129
17.290281,3.316686,-2.122386,-9.422268
17.323216,1.022510,-3.716981,-8.734509
17.356847,0.978515,-4.119371,-9.073899
17.390246,3.050621,-3.231390,-8.490591
17.423124,0.592137,-4.255995,-8.703383
17.456848,1.768331,-2.067317,-10.515560
17.489944,1.334067,-3.305313,-7.260975
17.523562,1.372226,-2.287592,-9.815081
17.556771,0.646009,-4.334707,-8.664776
17.590114,0.105349,-3.379985,-9.355228
17.623096,0.383236,-1.428940,-8.813970
17.656763,-1.557933,-3.260421,-9.669329
17.690180,1.196395,-2.817926,-9.116398
17.722815,1.400508,-2.706742,-10.038647
17.756789,-2.324105,-4.057569,-8.903157
17.790187,-1.360703,-4.818054,-9.039781
17.823122,1.831929,-3.469621,-8.728523
17.856781,-1.240091,-4.688014,-7.364079
17.890180,-2.234319,-3.081298,-10.199963
17.923342,-0.556821,-3.831159,-10.063638
17.956849,-1.232459,-3.900144,-11.447536
17.989660,-0.820792,-4.574286,-9.099638
18.023343,-0.389820,-4.237888,-9.570714
18.056845,-0.140814,-2.461926,-8.798856
18.089652,0.216982,-4.039013,-9.992707
18.123523,0.905041,-2.671426,-9.411943
18.156771,0.603211,-3.091324,-13.020433
18.190115,0.680277,-3.667898,-7.384580
18.223177,0.544551,-4.206613,-3.625549
18.256827,1.767732,-2.845910,-9.105624
18.290090,1.572747,-3.556714,-8.661633
18.322849,1.091645,-4.124758,-9.421819
18.356847,1.415024,-3.978108,-11.077618
18.390002,1.826392,-3.275834,-9.097693
18.423587,1.075484,-3.543545,-8.489394
18.456353,1.567061,-2.653768,-9.165481
18.490239,1.112745,-4.785581,-9.830793
18.523085,0.697486,-3.985590,-8.685726
18.556797,1.505857,-3.432510,-8.092092
18.590494,1.293663,-4.213347,-10.429814
18.622639,1.263286,-3.192483,-8.653253
18.656848,-0.750759,-4.229658,-8.092242
18.690182,-0.515670,-3.682264,-10.003781
18.722833,-2.113258,-3.480845,-7.312153
18.756851,-0.381440,-3.697079,-9.405508
18.789625,-1.914382,-1.492838,-10.034009
18.823150,-0.416756,-1.849437,-9.157400
18.856849,-0.127346,-3.720423,-8.738849
18.889620,0.715593,-4.039911,-9.467460
18.923081,0.018556,-4.203770,-9.184934
18.956922,1.333019,-2.816430,-9.046964
18.989504,-1.519923,-5.107314,-6.623496
19.023151,1.249369,-4.066996,-9.312281
19.056851,-1.134742,-5.064965,-7.226707
19.089382,1.740796,-3.121552,-10.951020
19.123163,0.582111,-3.637521,-8.250115
19.156873,1.964513,-3.246204,-10.901189
19.189363,0.484993,-5.172708,-8.039418
19.223148,-0.091731,-4.811021,-8.201032
19.256849,0.109838,-3.515861,-8.359055
19.289258,-0.000599,-4.075376,-10.166443
19.323120,0.213092,-3.668198,-9.599894
19.356900,-0.240626,-3.421885,-6.873101
19.394949,1.317157,-1.212557,-8.568405
19.423096,-2.803561,-3.734190,-8.030439
19.456841,1.296058,-2.651823,-9.003268
19.490137,-0.002095,-3.656226,-8.898518
19.523155,0.949036,-3.454807,-9.984028
19.556843,-0.550836,-4.296548,-9.094251
19.589727,2.642844,-2.127773,-8.278248
19.623155,0.672944,-3.146093,-9.133457
19.657215,-0.104151,-3.469322,-9.000724
19.689642,0.656633,-3.937256,-10.035056
19.723231,1.732117,-3.429517,-10.387914
19.756841,-0.299436,-6.050962,-6.455896
19.789199,1.431484,-4.683974,-9.098142
19.823244,-1.124417,-4.839603,-5.965217
19.856782,2.547222,-2.228034,-10.021738
19.890105,-1.146864,-4.829726,-8.530695
19.923451,-2.248984,-3.954165,-7.166401
19.956768,-0.647954,-2.727243,-7.436057
19.990122,0.742528,-2.555752,-8.070992
20.023144,-0.984950,-2.557398,-7.364079
20.056757,-0.300333,-3.693786,-9.731580
20.090123,0.187054,-3.179164,-10.968678
20.123230,1.182479,-5.033091,-8.529049
20.156823,-0.534225,-3.503441,-8.870235
20.190101,1.186818,-4.648808,-6.812645
20.223157,3.222711,-3.672687,-10.110775
20.256856,3.180212,-3.689896,-9.034992
20.290068,0.974924,-4.105604,-8.182327
20.323122,2.727243,-2.852793,-10.548032
20.356786,2.910705,-2.743105,-9.943175
20.390109,-0.383984,-4.397108,-6.866067
20.423051,-1.021612,-5.211016,-7.846678
20.456785,2.012099,-3.160908,-9.681599
20.489457,-0.079610,-4.658984,-7.378295
20.523154,-0.643465,-4.754456,-7.770659
20.556817,0.105798,-2.685492,-9.679205
20.590105,-1.008893,-0.962653,-10.290796
20.623132,1.520821,-1.877271,-9.534201
20.656786,1.419363,-4.367030,-9.150068
20.690104,0.380841,-5.581233,-7.499207
20.722842,0.395656,-4.345332,-10.046728
20.756783,-0.305721,-3.839539,-8.599382
20.790120,0.947689,-2.566227,-10.534265
20.823094,-0.131237,-3.292594,-9.645685
20.856782,-0.502501,-2.389798,-11.611395
20.890282,2.764205,-2.782461,-7.215783
20.923160,-1.576189,-3.259972,-9.448905
20.956865,-1.265680,-4.248663,-7.933770
20.990202,1.048249,-3.757534,-5.536041
21.023233,-1.570652,-4.104706,-5.318161
21.056482,1.759202,-2.653918,-8.107954
21.089378,2.920731,-3.435203,-9.985225
21.123106,-1.905104,-6.490763,-9.207231
21.155914,1.390782,-3.347812,-11.782287
21.190073,0.910428,-4.036020,-14.125546
21.222906,-0.074223,-8.123068,-5.805997
21.256744,0.297041,-4.522210,-4.077172
21.290090,0.016311,-1.001860,-7.410917
21.323990,-2.563533,-2.838427,-6.370600
21.357106,1.090448,-1.816815,-5.235707
21.390092,0.994377,-0.705118,-16.179246
21.423494,1.568108,-2.108768,-13.168280
21.456763,2.352986,-2.204091,-8.082814
21.490248,2.410898,-4.259736,-10.783570
21.522859,2.199901,-6.199258,-6.741415
21.556790,3.261169,-2.967420,-9.988218
21.589495,-2.081384,-5.642587,-6.087475
21.623427,0.913271,-6.689339,-9.809095
21.656769,0.891273,-4.650604,-8.583220
21.690110,2.300760,-4.735301,-9.115051
21.723604,1.284984,-4.570395,-8.583220
21.756782,0.349416,-4.022552,-8.186816
21.790121,0.315747,-3.634977,-4.442899
21.823662,2.656162,-2.039933,-11.797700
21.856817,-1.432532,-2.695818,-8.706077
21.890117,-0.747616,-0.311856,-12.015730
21.923947,0.395207,-6.171125,-5.427699
21.956899,-2.345803,-4.616036,-10.406320
21.989807,2.956196,-2.920132,-13.223049
22.023589,-1.501517,-4.264076,-8.859012
22.056462,0.929732,-5.342852,-6.490613
22.089184,0.346723,-5.501024,-6.862775
22.123433,-0.168498,-5.609516,-8.604021
22.156806,-0.957565,-2.868805,-12.986314
22.190150,0.643764,-3.012911,-10.768905
22.223547,1.057976,-2.046517,-12.224332
22.256784,2.631621,-0.469430,-10.176020
22.290202,-0.151888,-5.027853,-6.332890
22.322964,0.972679,-4.197634,-8.480565
22.356757,2.789045,-2.944075,-10.867520
22.390117,2.220552,-3.109431,-13.633819
22.422879,1.230664,-3.166894,-12.252316
22.456783,0.186305,-4.273653,-6.399481
22.490187,-0.501753,-3.492217,-6.873699
22.522886,0.635085,-3.694086,-7.814504
22.556853,0.461050,-2.404014,-11.276793
22.590284,0.207255,-2.600645,-11.115777
22.626771,-2.273226,-4.310615,-8.568705
22.656701,0.515520,-1.742742,-9.932700
22.689651,0.489781,-3.652186,-5.915086
22.722679,-2.092308,-5.367693,-6.326156
22.756516,2.244195,-3.304864,-6.809203
22.789295,0.528838,-3.441788,-7.604555
22.822917,1.003206,-2.920731,-13.035996
22.856856,1.344841,-4.565756,-12.016778
22.889652,-1.401107,-4.920110,-1.391230
22.923446,-0.360789,-3.249796,-10.645899
22.956844,-0.606653,-4.907840,-5.387445
22.990151,-0.657681,-6.464126,-6.957798
23.023309,2.287741,-3.579609,-12.035633
23.056153,-0.660823,-2.202146,-3.831009
23.090253,3.630637,-5.448051,-12.167767
23.123340,1.809782,-4.568749,-7.922397
23.156769,1.507952,-2.184937,-12.022314
23.190124,1.856470,-4.169651,-9.502776
23.223561,-0.011223,-3.874406,-10.569880
23.256756,-0.292253,-1.841955,-9.545125
23.290166,-0.541408,-6.691434,-9.156353
23.323065,2.967719,-5.240496,-9.095897
23.356835,-0.579417,-2.979990,-10.532320
23.390231,-0.141113,-1.835071,-11.538668
23.423572,1.155692,-4.622920,-7.948734
23.456791,0.830369,-1.031489,-11.591941
23.490093,-0.497264,-2.588075,-11.815059
23.523198,2.057441,-4.887638,-11.364933
23.556880,0.170443,-5.778313,-4.447688
23.590095,-0.864338,-0.747616,-8.711165
23.622922,1.415173,-3.182457,-10.551773
23.656784,-1.955534,-5.404205,-11.173240
23.689348,0.678331,-6.243553,-9.208129
23.723105,1.176942,-7.958760,-6.957948
23.756784,-0.809718,-4.998673,-11.093630
23.790107,0.646757,-3.424130,-11.076122
23.823046,0.205609,-4.616934,-9.916389
23.856950,3.525139,-1.505408,-11.154984
23.890136,0.751507,-2.279960,-8.563168
23.923138,-0.734897,-4.959915,-9.983280
23.956759,-0.096370,0.284172,-14.279977
23.989869,-0.584655,-4.058017,-1.824896
24.022918,1.379409,-3.377142,-12.946958
24.056759,0.245714,-2.261105,-5.683589
24.090150,2.793535,-0.812711,-20.415787
24.123451,-1.698597,-7.784276,2.130916
24.156783,5.953245,4.733506,-28.499799
24.190191,11.597478,9.426309,-27.676912
24.222842,-6.585936,-1.338257,8.824295
24.256857,9.212319,3.232288,-23.572056
24.289983,8.448841,-6.892554,-13.183544
24.323045,3.321924,-4.386633,-8.382848
24.355890,1.011886,-9.627429,-9.396679
24.389588,1.037923,-3.169887,-12.374424
24.422668,-0.290457,1.028197,-11.007286
24.456973,-7.624907,-15.990696,-0.439202
24.490133,1.208516,-12.240643,-7.944394
24.523475,-1.085809,2.102334,-8.941765
24.556814,-1.254457,-0.461050,-10.373848
24.589994,0.297640,-3.332099,-6.055302
24.623146,3.401534,-5.601734,-0.697785
24.656803,1.862306,-4.417310,-8.903306
24.690460,-0.708559,-5.492495,-8.645921
24.723486,-0.034268,-3.849864,-6.976205
24.756781,1.603275,-6.280066,-3.540552
24.789949,-1.646671,-3.670143,-5.961476
24.823519,1.260143,-2.205138,-12.255308
24.856435,-2.453845,-1.387639,-7.241821
24.890098,0.060306,-3.122749,-10.770701
24.923529,-1.929496,-5.698403,-6.973960
24.956770,-2.296121,-3.142652,-4.158577
24.990128,0.670999,-1.787934,-14.640467
25.023459,-1.738252,-3.126490,-8.580676
25.056774,-0.999914,-2.792188,-15.064406
25.090117,-0.903544,-3.031616,-8.723885
25.123513,2.401320,-0.980461,-17.237221
25.156774,-1.038971,-5.920773,-11.116226
25.189943,-0.293599,-5.838469,-5.425155
25.223034,2.489310,-7.982104,-9.170419
25.256472,2.962481,-3.833553,-10.675528
25.290118,-0.120612,-1.613301,-9.601989
25.323175,3.220466,-3.432959,-13.183843
25.356802,2.469408,-2.989866,-12.390735
25.390147,3.193231,-3.700670,-3.902538
25.423105,3.741074,-5.660244,-5.924813
25.456242,1.992496,-4.223822,-7.359889
25.490104,-2.005664,-6.667192,-10.760525
25.523065,4.285924,1.218692,-11.572188
25.557037,3.373700,-2.853990,-11.797401
25.590161,-1.171255,-5.748384,-9.817026
25.622888,-1.964363,-6.803068,-6.722111
25.656690,-2.886912,4.966649,2.161143
25.690123,2.406408,0.572534,-18.210349
25.723095,2.932553,0.650797,-9.302703
25.756813,-0.071080,-2.749091,-7.441145
25.790591,2.204091,-2.938838,-6.655370
25.823156,-0.786673,-1.006199,-6.484478
25.856858,2.093505,2.056244,-8.483259
25.890304,0.649001,-3.242014,-17.756482
25.923117,-1.211659,-3.633780,-5.069753
25.956154,-4.974730,-7.631940,-3.194278
25.989408,1.911090,-0.342084,-1.370879
26.022806,1.510795,-3.521996,-11.014768
26.055950,2.196160,0.317243,-28.507580
26.090218,1.395720,-4.133737,-1.012185
26.122979,8.596239,-4.279788,-2.227884
26.155966,2.073902,0.390119,-21.829165
26.190096,-3.299777,-6.995060,3.348860
26.223217,9.030054,-4.972485,-10.033560
26.256964,2.658257,-0.133182,-24.008265
26.290148,2.508016,0.393411,-2.929560
26.322779,-5.900571,8.755010,10.855249
26.356789,25.085994,16.722899,-30.651514
26.390131,2.308242,-0.169994,-16.321706
26.423516,-4.868484,-25.194186,-4.359847
26.456876,2.973555,-10.645599,-12.995891
26.490143,-3.448522,-5.421863,-7.928682
26.523125,3.805570,4.903350,-9.440674
26.556777,-5.129760,-16.134951,-6.367307
26.590141,2.745350,-5.844754,-14.885582
26.623565,-6.730640,2.176856,1.015327
26.656768,4.144361,2.136602,-10.023234
26.690099,1.887746,-1.684082,-10.801078
26.723300,-1.811578,-1.982769,-2.729038
26.756763,0.154432,-0.947539,-23.068957
26.790122,3.193680,-3.509426,-4.697741
26.823475,-4.466243,-10.767708,-3.356791
26.856766,3.096711,-2.112509,-16.270827
26.890167,-1.157638,-1.654901,-6.500041
26.923094,3.139958,-2.212621,-3.370558
26.956830,-1.917375,-15.162123,-5.405253
26.990131,1.373124,0.982556,-8.666721
27.023072,-1.292915,-1.968852,-11.567250
27.056726,-2.655414,-3.083393,-8.386889
27.090086,1.217794,-4.225318,-5.564323
27.125845,-0.707213,-5.331778,-3.636922
27.175104,2.017486,-4.717344,-8.935929
27.189185,0.476313,-6.437490,-6.221854
27.223521,1.390482,-4.432125,-5.215805
27.256737,2.458185,2.377228,-10.722965
27.290073,1.443905,-4.041856,-7.299284
27.323404,1.122921,-7.086342,-5.771130
27.356738,0.669054,-5.066761,-10.966284
27.390157,0.461200,-8.582173,-5.696757
27.423467,-2.512206,-6.020585,-8.442705
27.457040,-1.375069,-2.666338,-9.037835
27.490164,-1.145966,-4.935075,-5.526464
27.522437,-0.015862,-3.292294,-7.701973
27.556311,-0.376651,-2.233271,-8.597137
27.589302,-0.696289,-4.744579,-6.575161
27.622880,-2.104878,-6.488668,-5.443861
27.656755,0.139467,-8.740046,-3.260421
27.689594,1.812176,-1.781200,-13.992364
27.722927,3.893111,-3.997562,-6.429110
27.756793,0.434563,-1.854076,-8.963164
27.789787,-0.699730,-4.258389,-11.100514
27.823154,2.545427,-4.556927,-8.038520
27.856788,1.316858,-2.701953,-12.598739
27.890263,1.737654,-3.888173,-5.068556
27.923256,3.763819,-0.838898,-10.381330
27.956799,-0.513126,-1.446449,-7.427079
27.990119,0.199324,-0.584505,-13.503031
28.023459,1.076681,-3.181259,-4.934775
28.056746,-0.968190,-6.006967,-9.714072
28.090134,3.160758,-6.869808,-9.988816
28.123135,-3.051070,-4.883448,-10.413802
28.156764,3.111825,-4.353562,-9.093952
28.190112,2.271131,-6.615715,-6.235472
28.223123,2.612317,-4.575483,-5.969407
28.256787,-0.052824,-6.208686,-6.528024
28.289465,-1.585317,-3.335990,-14.401039
28.323528,-0.172987,-3.640514,-10.486229
28.356823,-0.142759,-5.301550,-9.120139
28.390118,0.414960,-1.278100,-6.762814
28.423506,0.474368,-3.267304,-8.218690
28.456792,1.475779,-1.242635,-17.285406
28.490118,0.285369,-4.556628,-12.622383
28.523614,0.110137,-4.410277,-9.395332
28.556487,2.230428,-4.084205,-7.150987
28.590091,-1.622578,-5.315916,-6.582494
28.622864,0.547693,-3.047778,-10.209540
28.656340,-0.281628,-0.305721,-9.714820
28.689807,5.674461,-10.585892,10.670141
28.722878,-5.772028,-7.345374,-7.332355
28.756821,9.209476,3.746162,8.143569
28.790153,3.269998,-8.503161,8.232756
28.823147,-4.713304,-0.239878,-26.262786
28.856782,4.289515,-10.817539,-14.408670
28.890122,1.967954,0.046539,-6.788403
28.923133,-1.863204,-14.687455,-12.202634
28.956797,3.722069,-15.875770,-11.290411
28.990125,0.542605,-2.713476,-11.833465
29.023136,-0.199025,-0.704070,-11.041405
29.056838,0.044743,-3.215378,-18.367175
29.089994,0.687011,-3.587839,-18.277090
29.123716,0.985848,-4.284278,-10.334192
29.156539,1.550301,-6.923530,-5.126019
29.189511,1.225127,-4.862049,-8.058722
29.222840,1.792872,-4.287570,-6.921435
29.257986,-0.108192,-0.046838,-4.660480
29.289152,1.631108,-2.427358,-15.869186
29.323428,0.287464,-1.650113,-18.227109
29.356757,-0.804331,-4.029735,-1.386143
29.390110,1.930095,-4.732458,-4.352814
29.423153,0.936914,-3.058552,-11.668558
29.456782,0.971033,-4.961861,-7.650346
29.490315,0.733699,-1.969451,-9.546621
29.522826,-0.033670,-1.020116,-12.059575
29.556782,1.081619,-5.351830,-5.606373
29.590202,2.417033,-1.776860,-7.591536
29.623278,-2.095450,-0.207106,-16.277112
29.656789,-1.365791,-3.087284,-8.475028
29.689680,4.886441,-0.265766,-12.776515
29.722964,0.704968,-3.858244,-8.176491
29.756939,-0.387126,-6.495851,-4.763584
29.790112,2.382914,-1.412779,-29.775505
29.823247,2.597353,1.634700,-4.015369
29.856791,-1.233357,-5.701097,3.932617
29.890122,4.480759,-8.525458,14.837397
29.923145,-2.929410,-5.632860,-16.423313
29.957232,2.908909,-2.444268,-20.115454
29.990139,-0.207106,5.655306,-4.390674
30.023126,0.004340,-1.415772,-6.878937
30.056792,1.012933,-0.807773,-18.958564
30.090114,1.519923,-4.269014,-6.642351
30.123490,-2.974004,-6.214372,-14.150237
30.156798,0.373060,-3.945636,-12.109706
30.190094,0.971332,-4.178330,-10.837591
30.223366,-0.993480,-2.206635,-5.197249
30.256791,-0.164308,-1.219141,-8.759350
30.289924,2.931356,-0.093976,-11.480906
30.323802,2.061332,-6.570971,3.436999
30.358686,1.453332,-6.679163,-11.852919
30.390066,5.619242,-6.926074,-5.176000
30.422802,-1.103617,-1.900465,-4.470583
30.456771,0.038009,-6.031359,-6.846464
30.490117,2.453546,-0.780388,-13.594014
30.522813,0.834708,0.409872,-7.666358
30.556783,2.842168,-4.121765,-9.103229
30.590187,1.386592,-5.669522,-7.933919
30.622940,0.229552,-3.274337,-11.679033
30.656854,1.384796,-2.674868,-8.797060
30.690733,0.944846,-3.379985,-6.045126
30.723179,1.388537,-4.579224,-12.672363
30.756861,-0.131387,-2.491405,-12.834576
30.789931,0.897858,-1.301145,-14.206952
30.822799,-1.160032,-0.132584,-11.338895
30.856783,0.365877,0.691201,-18.313453
30.890164,-0.361986,-3.481294,-11.943453
30.922869,0.175980,-3.800931,-7.688056
30.956605,-0.053123,-2.403715,-12.690021
30.990026,3.508379,-8.000361,-6.107827
31.022982,-3.702316,-8.743937,-6.801122
31.056781,1.766236,-4.965003,-21.072720
31.090156,3.071721,0.862692,-18.995825
31.123132,-1.208816,-1.618987,-11.185661
31.156611,1.683932,-3.646200,-13.594613
31.189650,-0.403288,-0.286417,-2.798024
31.223327,-0.090384,-3.513018,1.243234
31.256487,4.370622,-3.563148,-9.654065
31.290094,1.573795,1.644426,-9.233419
31.323484,-0.659177,-0.808371,-12.478725
31.356761,1.009940,-1.210761,-7.321281
31.389966,1.521719,-2.517743,-12.617145
31.423070,1.094638,-2.348347,-9.169970
31.456755,-1.045256,-4.785581,-10.780876
31.490103,3.999357,-4.709413,-12.481419
31.523121,-4.305078,-10.102395,4.915920
31.556791,2.742357,0.272500,0.871521
31.590182,0.936017,1.099277,-15.705177
31.623449,0.797747,-2.986574,-11.270359
31.656764,0.989888,-7.102204,7.721426
31.689202,-0.829770,-10.715632,-12.842208
31.722924,0.943648,6.038243,-35.503088
31.756856,-0.608897,7.690450,-23.537489
31.790113,-5.640791,-4.128350,14.172235
31.823028,4.099469,-24.426517,27.372239
31.856882,-5.562827,-4.308071,-12.255608
31.889490,4.382892,-3.562101,-14.075565
31.923140,-0.368122,10.729100,-12.072744
31.956784,1.718649,5.151159,-8.772818
31.990133,-2.975800,-12.832631,-23.415829
32.022869,1.647718,-0.662918,-0.976121
32.056784,0.332806,0.864787,3.961198
32.090146,-0.062700,-6.774336,-0.493822
32.122909,0.694643,-11.269012,0.896661
32.156757,4.967847,-6.192674,-9.011498
32.190015,4.616036,1.614049,-36.455566
32.223112,-2.905019,-4.161570,-11.367178
32.256782,0.601864,0.604707,-2.881674
32.290088,0.502052,-8.174096,-8.627365
32.323106,-3.277779,-5.140385,-10.808860
32.356916,0.301979,-8.087752,-15.113638
32.389259,2.553657,0.561610,-15.747376
32.422964,2.457736,-1.529501,-9.957691
32.456134,-1.794069,2.112958,-9.963527
32.489566,2.462375,-4.702979,-14.125845
32.522837,-3.519752,-7.206206,-8.330024
32.556753,5.362455,2.283551,-10.930669
32.590097,3.974367,2.801615,-14.024986
32.623085,-1.922164,1.043909,-12.394327
32.656780,-1.194600,-7.644959,-4.529542
32.690154,1.385394,-5.962673,-10.263411
32.722613,3.798088,-2.102633,-9.535099
32.756850,-1.031788,-3.753793,-8.307129
32.790116,1.645474,-3.097908,-6.255075
32.823444,1.152101,-4.657487,-1.933686
32.856790,-2.663345,-3.975863,-1.434477
32.890137,3.044186,-4.070288,-13.059639
32.923451,1.028346,1.314314,-13.765655
32.957938,0.482299,4.040360,-23.895435
32.990072,-2.044721,0.262174,-9.675464
33.023033,0.823635,-6.129225,-3.990678
33.056087,1.408888,-5.521675,-7.693144
33.089463,2.272328,-2.997049,-11.863394
33.123455,0.088738,-4.063704,-9.770637
33.156671,3.458249,0.996023,-10.180060
33.190210,1.289324,-3.879793,-9.600343
33.223205,1.938175,-4.776902,-6.889861
33.256761,1.761447,-7.479753,-11.889880
33.290122,-0.209350,-2.090811,-8.024753
33.322865,0.549040,-3.654430,-9.857131
33.356760,0.070631,-2.229381,-4.950189
33.390122,2.381418,-5.388044,-12.483813
33.423103,-3.390610,-1.446598,-9.509660
33.456758,3.398242,-3.006925,0.640322
33.490116,-0.292402,-2.875689,-6.520542
33.523198,-1.996237,-4.555431,-0.688806
33.556760,1.029843,-10.702763,6.710738
33.590118,0.988990,-0.439352,-1.322544
33.622868,0.878554,-2.995104,-11.926992
33.656761,-0.923746,1.010389,-11.531934
33.690183,2.169673,-7.724270,1.651310
33.722953,-5.701995,-21.710797,16.511004
33.756775,-3.743468,1.932339,-6.031509
33.790175,2.417332,-6.650731,18.310760
33.822988,-2.715571,-5.402410,-19.680591
33.856179,2.396981,-1.385544,-19.719349
33.890524,1.311471,-3.051220,-18.807425
33.923278,-0.576425,-6.581746,-8.971993
33.956870,-2.792637,-9.586875,-12.769033
33.990277,0.610843,-8.896722,-10.356489
34.023261,-0.610244,-8.676747,-11.920108
34.056283,0.295545,-4.907092,-11.524602
34.089162,-1.139830,-5.063618,-7.579415
34.122980,2.787998,-0.124653,-11.309715
34.156311,1.293214,-2.748492,-9.479731
34.190174,1.330924,-3.223159,-10.828014
34.222967,2.243597,-4.365983,-8.014128
34.256807,1.478472,0.372312,-13.828505
34.290105,0.522404,-1.634999,-14.354949
34.323098,0.523152,-1.111847,-11.713152
34.356781,2.300311,-5.504466,-5.034737
34.390103,3.310551,-5.056136,-10.147887
34.423231,-0.595729,-0.173436,-20.491058
34.456786,0.702723,4.313308,-8.237844
34.490039,1.998332,-3.087733,-7.594230
34.523439,2.943926,-3.948329,-10.906427
34.556851,1.783594,-6.960642,-9.197056
34.589681,2.939287,1.330775,-6.094359
34.623487,0.835008,-0.459404,-9.561735
34.656787,0.600068,-0.943798,-7.914615
34.689872,1.961220,-5.250672,-6.138054
34.723164,3.310252,2.171319,-11.979816
34.756396,0.222369,1.026850,-10.768007
34.789288,0.197828,-4.404441,-8.620032
34.823127,2.505921,-2.929410,-12.777263
34.856844,0.382038,-0.347621,-11.893172
34.890095,4.378702,-1.762195,-14.138116
34.922940,-0.773205,-1.373273,-5.531701
34.956795,3.310252,-2.247188,-7.407326
34.990130,1.405746,-4.092435,-11.768221
35.023104,1.730172,0.285369,-14.633135
35.056849,-0.034268,-5.632710,-11.323482
35.089474,1.894929,-0.990487,-8.685726
35.123501,0.878554,-4.445443,-10.314739
35.156783,1.455876,-0.383834,-10.868268
35.190109,4.303432,-0.695840,-8.106158
35.223455,1.281393,-0.413015,-2.434092
35.256793,5.463464,-2.147526,-14.044290
35.290072,-1.135940,-4.164414,7.081852
35.323078,5.725788,-16.656607,-16.433489
35.356738,-6.846614,-8.107655,-3.069925
35.390083,-1.514686,-5.485312,-3.182008
35.423056,-3.266556,-6.910062,11.135830
35.456764,-8.856767,-8.788081,-15.978874
35.490120,8.434325,11.764480,-6.483281
35.523037,-3.160609,5.913889,0.384732
35.556863,4.640877,-0.344328,-16.450848
35.590203,7.308711,-5.429345,-15.446444
35.622901,1.925456,-9.293575,-7.557867
35.656411,-2.070759,-7.196180,-3.104493
35.689448,3.516759,-3.237824,-6.344711
35.722788,1.534888,-4.390075,-9.175507
35.756104,1.217345,-0.298687,-5.409742
35.789204,5.414231,1.232310,-5.108361
35.822894,2.059087,3.552972,-4.182520
35.856750,1.291568,-2.204989,-8.163172
35.890074,1.644576,-4.497070,-4.045298
35.923397,0.960857,-4.307622,1.817863
35.956807,9.617403,3.176920,-51.536582
35.990075,-11.560217,-6.158855,-21.095465
36.023470,6.538200,-5.634057,-13.132815
36.056756,0.045940,-5.109409,-7.385029
36.090141,-0.623263,-1.481914,-10.353047
36.123401,1.317008,-8.834770,-6.925027
36.156736,5.184081,0.838001,8.647417
36.190154,1.238146,-3.528880,2.190473
36.223399,0.858202,0.234341,-7.705864
36.256731,5.423210,-2.764055,-22.350970
36.290074,-1.616892,-2.069861,-6.889711
36.323077,-1.283787,-6.733184,-2.598999
36.356743,2.837978,10.299176,-36.293353
36.390099,5.506860,10.998906,1.169609
36.423476,-4.304629,-7.847426,3.497904
36.456824,-0.569541,-5.030697,-8.986209
36.490096,5.918528,-3.027277,-11.611694
36.522829,-0.740583,2.647782,-4.790669
36.556863,-3.434455,-19.137537,-9.495444
36.590088,5.381909,-7.666956,-15.669263
36.622944,0.713198,-1.915579,-9.899480
36.656762,-4.332912,-6.443176,-13.052456
36.690179,1.446598,-5.830688,-7.273246
36.723122,1.378511,-5.786244,-8.035078
36.756379,1.448544,-1.906601,-10.850760
36.790282,-0.650348,-1.438368,-13.177558
36.823430,0.474218,-5.369788,-3.045683
36.856768,-0.374107,-7.886333,-5.798215
36.890155,1.749176,-1.364444,-5.704389
36.922878,-1.051990,-4.458761,-8.112294
36.956765,1.731070,-4.294304,-12.194703
36.990192,-0.558617,-4.656889,-4.955127
37.023077,5.489053,0.114926,-16.173709
37.055944,1.382850,-0.209799,-6.395889
37.090277,1.801551,-7.155626,-6.772690
37.123588,0.358545,-4.928042,-1.519175
37.156820,7.946938,-8.741542,-5.610713
37.190194,-0.370366,0.873616,-12.106114
37.223144,3.745862,0.745671,-17.002581
37.256787,0.738488,-5.225382,-13.581444
37.289653,1.213455,0.111933,-6.036596
37.322609,2.094552,-0.029330,-15.917371
37.356297,0.502800,-9.727689,-8.638588
37.390128,3.910769,-5.861514,-8.196842
37.422871,0.518962,-7.892618,-9.567871
37.456465,3.265957,-4.856512,-14.032019
37.490210,-2.428555,-5.128563,-9.653167
37.523246,-3.231240,-5.224783,0.692248
37.555748,-1.977532,2.840073,-4.494825
37.590079,0.495318,8.891634,-11.254197
37.622600,-0.701676,2.516246,-7.740581
37.656781,0.228954,2.608127,-11.153188
37.690107,2.500833,-0.021998,-12.312622
37.722815,-0.605904,-12.115392,-8.045852
37.756899,2.691328,0.546346,-11.844539
37.789838,0.398948,-4.122364,-6.676021
37.823427,1.748129,-4.636088,-19.686727
37.856761,-0.330711,-4.285475,-9.766896
37.890105,0.021399,-0.752704,-8.720892
37.923426,0.749412,-0.297939,-6.719268
37.957091,0.167151,-4.144661,-7.992280
37.990357,-1.250267,-2.725447,-7.773502
38.023146,3.252789,-1.021912,-9.277114
38.056788,-0.100410,2.005515,-12.431438
38.089270,3.701867,0.983453,-9.107868
38.122823,4.464448,0.432468,-9.696863
38.156788,-1.637543,-3.773397,-2.916092
38.190106,1.503014,0.273697,-8.506753
38.222835,1.592500,-1.537881,-11.159623
38.256858,0.190795,-1.833874,-11.736796
38.290111,-0.439950,-1.441062,-10.268349
38.322837,1.248621,-1.550301,-10.514063
38.356786,0.964898,-3.296634,-9.641046
38.390030,0.758390,-1.070845,-8.952539
38.422960,-0.693146,-1.297404,-8.517976
38.457088,0.734298,0.112831,-9.543479
38.490132,1.432233,0.539912,-9.138395
38.522886,1.659840,-1.332271,-10.734637
38.556782,3.006028,-0.413015,-10.905529
38.590106,3.150732,-1.057377,-10.819484
38.623516,-0.746718,-4.206463,-7.857601
38.655994,1.596990,-2.913997,-11.798897
38.690091,0.416456,-1.315362,-9.886461
38.723158,1.591303,-2.252276,-10.689145
38.756790,-0.120014,-1.159434,-8.507650
38.790154,2.002821,0.040404,-9.340413
38.823693,2.142588,-1.513339,-10.701416
38.856867,-0.171790,-3.862434,-12.525115
38.889832,1.016674,-0.167600,-8.687222
38.923059,-1.086109,-4.290114,-4.159176
38.956053,3.233036,0.241075,-12.528407
38.991230,-0.779939,-2.787698,-9.239404
39.022834,-0.930629,-1.307879,-12.031891
39.056819,1.485954,-2.185386,-10.968229
39.090132,0.849074,-2.815532,-8.033731
39.123634,0.010325,-2.636559,-6.721363
39.156847,-0.383385,-2.892598,-11.420750
39.190115,3.343921,0.680576,-10.196820
39.223083,-1.533990,-3.807814,-11.787525
39.256790,1.821005,-0.659925,-12.599936
39.290161,1.369083,-3.741523,-8.966905
39.323277,-0.607550,-2.840223,-8.604619
39.356790,-0.254992,-3.381332,-11.526847
39.390189,1.388238,-2.751635,-8.752317
39.423518,0.427081,-2.317820,-8.156139
39.456772,0.214289,-2.409401,-7.827823
39.490124,0.011672,-0.791312,-10.773095
39.522579,0.430373,-4.540167,-9.422717
39.556614,0.212493,-3.735387,-8.862005
39.590094,2.229530,-4.152292,-8.674053
39.623431,1.898221,-4.741886,-10.352449
39.656918,1.274509,-1.198640,-9.686538
39.690128,-0.108940,-2.328295,-9.729186
39.722524,0.537966,-3.324767,-9.645685
39.756788,1.161678,-2.458185,-8.827288
39.789473,-0.107593,-4.319294,-6.178907
39.822982,0.151139,-3.146243,-9.095448
39.856764,-0.279234,-3.955961,-10.940396
39.890085,0.394309,-3.309054,-10.868717
39.923097,1.017871,-3.428470,-9.735172
39.956785,1.425199,-2.276219,-11.577127
39.990094,0.444290,-3.103744,-9.193464
40.023150,0.000748,-1.739899,-9.748789
40.056853,1.713262,-0.191244,-8.796312
40.090213,0.825430,-1.469344,-11.027937
40.123190,3.594723,-4.385885,-11.364185
40.156788,4.017464,-4.121017,-12.468250
40.190208,-0.174035,-4.839902,-12.120630
40.223068,1.217944,-4.674546,-9.270530
40.255983,0.956967,-4.124010,-9.931054
40.289167,-0.085745,-4.792914,-7.578368
40.322970,0.838898,-3.727456,-4.985055
40.356795,0.012869,-5.022766,-7.093076
40.390152,0.710355,-4.788425,-9.638801
40.423155,0.784428,-1.906451,-7.046686
40.456861,-0.364830,-2.585830,-9.130764
40.490047,0.421993,-4.345033,-10.249943
40.523090,1.002308,-4.845588,-8.847789
40.556062,2.654516,-5.013039,-10.495358
40.589803,0.995126,-3.201910,-10.480693
40.622733,-0.782932,-4.997625,-9.500082
40.655808,0.803283,-4.954828,-10.097756
40.690111,0.540660,-4.539120,-5.029499
40.723052,2.270981,-1.529201,-11.415213
40.756776,1.601030,-4.305078,-10.506731
40.790202,1.854226,-5.101627,-9.699108
40.823449,3.209991,-4.645516,-9.576849
40.856972,1.049745,-4.098122,-5.854032
40.890107,1.053337,-1.745884,-10.607590
40.923241,-0.388024,-1.607764,-9.076294
40.956794,-0.051178,-1.546261,-11.682924
40.990106,2.026016,-1.569156,-10.544740
41.023408,-0.527791,-1.385394,-9.805055
41.056846,0.361088,-2.337273,-8.241436
41.090355,-0.690303,-3.911667,-9.587474
41.122979,1.843003,-3.488626,-8.647267
41.156833,1.242785,-6.246097,-9.796226
41.190125,-0.848326,-4.694898,-9.866408
41.223532,1.903907,-1.335264,-11.042153
41.256765,-0.540959,-3.569583,-8.481912
41.290092,-0.363932,-2.200649,-10.718475
41.323250,-1.166467,-3.245007,-7.757939
41.356456,1.056030,-2.875389,-7.599467
41.390101,0.535123,-3.497305,-10.617766
41.422886,1.983368,-4.190900,-9.286692
41.456784,1.533242,-3.745563,-8.175593
41.490136,2.298067,-4.465196,-9.508014
41.523097,0.955919,-3.724164,-8.655049
41.556097,0.746269,-2.654516,-8.856319
41.589662,-0.999465,-3.363674,-10.860038
41.623121,1.443606,-4.475372,-9.023619
41.656760,1.030890,-2.976249,-9.436933
41.690146,0.692847,-3.905681,-9.132410
41.723193,-0.292851,-3.770404,-10.285558
41.756783,1.003805,-3.914360,-10.073215
41.790119,-0.036962,-2.942878,-4.426588
41.823291,0.380991,-3.385821,-11.585956
41.856758,1.274509,-5.177347,-7.064344
41.890052,3.158364,-5.091601,-9.347297
41.922802,-0.513724,-4.331265,-8.842851
41.956828,1.658792,-3.781328,-8.051838
41.990127,2.249433,-3.046730,-7.087689
42.022963,2.755226,-4.068044,-11.017462
42.057560,0.038159,-3.012013,-8.482510
42.090777,-2.134806,-5.010794,-10.527980
42.123218,1.987707,-4.300888,-8.765036
42.156269,-0.264718,-1.462760,-14.030373
42.189286,-2.543332,-3.127987,-8.176191
42.222788,-0.373509,0.649001,-13.402172
42.256791,1.116037,0.309312,-14.276536
42.289411,-0.872269,-3.699473,-8.600279
42.322766,2.162191,-5.722795,-9.050705
42.356851,-2.427508,-3.378788,-5.903265
42.389648,4.656739,-3.758432,-7.959508
42.423040,0.225961,-1.283188,-11.011327
42.456757,-0.118368,-4.881503,-11.792014
42.490093,1.331822,-3.067531,-7.753600
42.523317,0.532579,-1.471439,-9.503674
42.556763,-0.274894,-3.911816,-6.210482
42.590108,1.348732,-3.228696,-12.153701
42.623456,-0.919406,-3.000940,-11.236839
42.656801,0.399696,-3.527533,-10.766810
42.690036,1.430437,-5.516587,-6.650432
42.723681,1.307131,-1.491491,-7.911174
42.756595,1.753965,-2.756573,-9.156802
42.790095,0.587947,-2.434840,-12.990654
42.822899,1.577237,-3.055559,-8.487000
42.856290,1.690816,-2.110564,-10.300822
42.889497,2.253473,-2.454593,-12.699449
42.923516,-0.140066,-5.198895,-8.250115
42.956645,1.728526,-4.007737,-8.615992
42.990196,1.353520,-1.676600,-9.305547
43.023451,1.154944,-1.465753,-7.086641
43.056759,1.021612,-2.114156,-8.916475
43.090184,1.635597,-3.793898,-9.426009
43.123462,1.467548,-5.095342,-8.352620
43.156824,0.215037,-4.981614,-9.940631
43.190181,-1.205673,-3.255632,-9.223542
43.223116,0.229403,-0.938261,-7.631042
43.256763,-0.728462,-1.173799,-12.184976
43.290158,0.237334,-2.569818,-10.169884
43.323151,1.252960,-4.319444,-8.356960
43.356757,-0.564752,-3.696330,-10.420985
43.390119,1.042113,-4.763285,-8.965558
43.423142,-0.190346,-3.630188,-10.397791
43.456758,0.922998,-2.268437,-8.424599
43.490116,1.845397,-5.341655,-10.561949
43.522939,3.103445,-5.081126,-11.433020
43.556775,-0.411668,-1.771024,-11.904994
43.589959,-0.898007,-1.521869,-10.034009
43.622906,0.095173,-3.766363,-7.731153
43.656861,1.895527,-4.275299,-6.760868
43.689793,-0.951879,-2.883769,-9.387102
43.723357,-0.280581,-2.618153,-8.499121
43.756587,0.571486,-1.072790,-11.880154
43.789468,1.713561,-4.359997,-11.809372
43.823518,-2.827204,-3.524540,-4.878510
43.856772,3.515113,-5.217601,-9.550363
43.889484,1.736606,-4.953331,-5.319657
43.922954,1.580828,-4.879557,-7.865233
43.955863,-0.357497,-2.696566,-7.198574
43.990150,2.040980,-3.100602,-10.231388
44.022755,-0.486040,-2.462375,-8.024753
44.056917,0.536171,-3.851660,-10.294687
44.090218,1.014729,-5.646178,-9.344155
44.123256,0.733550,-3.494612,-8.719994
44.156778,0.332207,-2.583137,-10.278824
44.189574,0.713348,-3.362028,-9.937339
44.223485,-0.627154,-5.712021,-9.029904
44.256770,0.712151,-4.172943,-7.209498
44.290124,2.572961,-3.188891,-8.801998
44.323571,1.417867,-5.126468,-9.585978
44.356285,2.345354,-2.349544,-9.165182
44.390131,2.270832,-4.330517,-8.168410
44.423607,2.250031,-3.541749,-7.442642
44.456776,1.735110,-3.027277,-9.428104
44.490095,0.984501,-3.621210,-7.288659
44.522649,1.448544,-2.485120,-10.664604
44.556397,1.614049,-3.605946,-11.163813
44.590177,-0.252897,-2.375282,-12.435927
44.623126,0.251550,-2.943028,-5.878574
44.656764,1.901214,-3.938602,-7.129140
44.690092,-1.163324,-4.381097,-6.992366
44.722942,1.935183,-3.559108,-12.915084
44.756784,-2.256466,-2.712877,-10.559854
44.790104,-0.160717,-4.431526,-10.220164
44.823162,0.352259,-2.789195,-9.118194
44.856854,2.150220,-4.080614,-6.531615
44.890101,1.923361,-5.389989,-7.913269
44.923882,-1.544166,-2.758368,-11.954227
44.956767,-2.008059,-3.618815,-8.485054
44.990117,0.640023,-4.277095,0.291804
45.022711,1.724336,-3.786415,-7.961603
45.056757,-0.983304,-0.856706,-6.639358
45.090151,0.161315,-1.486553,-10.374596
45.123493,4.026293,-6.707895,-4.681729
45.156758,0.974625,-5.205629,-2.444866
45.190117,2.615160,-2.996001,-11.428681
45.223132,1.211509,-3.640065,-5.432937
45.256854,1.533990,-3.196822,-9.360466
45.290244,2.124032,-3.713390,-13.413246
45.323176,-0.472423,-1.659241,-9.259008
45.356819,1.411283,-4.784684,-6.030611
45.390056,-0.477810,-3.724912,-5.297211
45.422684,2.555902,-0.827825,-12.783249
45.456305,0.406879,-2.750886,-9.954099
45.489100,1.079824,-5.268629,-5.306937
45.522911,1.805891,-4.835712,-7.183909
45.556669,0.223866,-1.331373,-10.121999
45.591508,-0.297191,-4.191349,-10.061244
45.623114,1.907798,-0.276989,-8.450636
45.656772,3.566141,-3.207447,-9.620246
45.690096,-0.582111,-4.017165,-11.069987
45.722818,0.955321,-2.379323,-3.140557
45.757050,0.783082,-2.142737,-3.325964
45.789361,-0.964449,-1.295309,-12.409740
45.823304,0.918209,-2.225340,-12.947706
45.856762,0.127795,-2.236563,-9.767943
45.890191,3.925284,-4.643870,-8.107505
45.923526,-1.621980,-3.074265,-10.629438
45.956261,1.569306,-3.995766,-14.496810
45.990140,1.924109,-3.989032,-8.929494
46.023671,0.151588,2.221749,-6.438986
46.056588,-0.118966,-4.234446,-14.055064
46.090096,2.712428,-2.220252,-9.659602
46.123543,4.048291,-1.963914,-10.557759
46.156775,1.493886,-1.240839,-8.951192
46.190118,2.567574,-2.833190,-8.621678
46.223929,1.346188,-2.557398,-11.412220
46.256775,0.438753,-2.626383,-9.247336
46.289786,-0.452520,-4.061459,-12.059875
46.323526,-0.553080,-3.414403,-9.428553
46.356775,-0.315747,-3.497754,-6.591173
46.390091,1.700094,-3.068878,-8.255053
46.423153,-0.896661,-3.352451,-7.623560
46.456871,-0.273547,-3.257128,-10.039994
46.490154,1.029693,-3.291247,-9.246587
46.523148,1.278549,-3.870365,-4.299840
46.556757,0.600368,-4.537773,-9.352385
46.590114,-0.017508,-4.154238,-9.317219
46.623532,0.848326,-3.579609,-11.211100
46.656755,-0.191094,-3.363525,-7.315445
46.690117,0.868228,-0.552781,-10.524688
46.723185,0.855658,-1.976334,-13.077147
46.756783,-0.531232,-1.498973,-8.969598
46.790116,1.783594,-3.574222,-6.547926
46.823081,1.782247,-5.344199,-10.035355
46.856763,2.232224,-1.818611,-12.627171
46.890277,-0.076617,-3.748406,-10.879491
46.922935,0.902197,-2.486318,-7.328165
46.957198,2.189875,-2.412095,-9.635509
46.989966,0.158921,-3.993671,-7.925390
47.022916,2.005964,-3.946982,-6.964981
47.056244,0.636880,-3.562699,-7.890373
47.089178,-0.078413,-3.433707,-11.731259
47.122813,0.589593,-4.441552,-8.232008
47.157010,1.901363,-1.462610,-15.028043
47.190105,-1.315212,-2.681003,-9.024816
47.223088,0.399547,-3.634229,-7.866430
47.256853,4.956025,-3.209991,-7.974922
47.289301,-0.071829,-2.364508,-7.648251
47.322778,0.727414,-7.024240,-8.269269
47.356842,2.291931,-3.453909,-9.534650
47.390077,2.392342,-1.304138,-12.223135
47.422815,0.633139,-0.870922,-5.536190
47.456920,3.285561,-2.538244,-9.325150
47.490039,2.541835,-3.912116,-7.754198
47.522906,0.517765,-4.972186,-6.269441
47.556894,2.618303,-2.268886,-13.838381
47.589921,-2.224143,-4.739042,-10.556113
47.623513,2.828701,-1.536534,-19.217447
47.656815,0.041301,-2.537047,-2.226388
47.690126,-2.021078,-2.718563,-10.126338
47.722907,1.524562,-1.819209,-7.272348
47.756953,-0.325922,-3.643058,-8.425646
47.789809,3.094466,0.940506,-23.559337
47.823124,-1.964513,-4.825536,-21.013910
47.856784,3.610136,-0.488435,-12.805097
47.889906,-2.936444,-5.091901,-9.068812
47.923090,-0.784428,-2.020030,-10.058400
47.956784,1.606716,-2.919833,-12.042815
47.989358,-3.831458,-0.552781,-6.999549
48.022880,2.198255,-1.866347,-11.558720
48.056842,-0.623413,0.423041,-8.962864
48.090104,-0.372910,-2.918486,-7.782930
48.123572,-0.763628,-10.221661,-10.018595
48.156884,1.892235,-0.755847,-12.220292
48.190116,1.485057,-1.568707,-8.813521
48.223199,0.291205,-4.334109,-11.109343
48.256557,2.537495,-4.371220,-12.002711
48.290114,0.494869,-5.448051,-9.614260
48.323303,0.168648,-4.554533,-8.676148
48.356780,0.336098,-4.178929,-7.446832
48.390185,1.034033,-2.722005,-10.977807
48.422854,2.602889,-2.546175,-8.095384
48.456782,2.711231,-2.591517,-9.871646
48.490180,0.234490,-3.364273,-6.718968
48.523490,0.543802,-4.763135,-10.451812
48.556346,0.556821,-3.541450,-11.002049
48.590247,-0.895314,-3.105690,-10.139058
48.622705,-0.249156,-3.059450,-9.692823
48.656158,0.475416,-2.855636,-9.064023
48.690184,1.444803,-3.193680,-8.885050
48.722895,1.049895,-3.731497,-10.316235
48.756785,1.296656,-4.188356,-10.565241
48.790180,0.081106,-4.262579,-12.359011
48.822953,-0.006135,-4.726024,-9.914444
48.857038,0.523301,-2.421522,-9.095298
48.890092,1.207469,-1.361152,-10.313093
48.922962,-0.546795,-1.811278,-10.669093
48.956851,0.644811,-2.801915,-8.494632
48.992162,0.988990,-3.423531,-11.108445
49.022893,0.372012,-3.788361,-11.490483
49.056895,-0.307367,-3.550279,-10.585742
49.096455,2.732331,-1.037624,-10.635274
49.123151,0.490979,-2.708388,-6.795436
49.156781,1.699046,-4.016566,-6.829704
49.190104,3.677475,-4.187908,-8.989351
49.223556,-0.334452,-4.688164,-9.121635
49.256688,1.983368,-2.828102,-8.819506
49.290113,1.507653,-3.352601,-7.748961
49.323290,0.083201,-3.908225,-9.715269
49.356831,1.007845,-4.165311,-8.326134
49.390115,1.417568,-3.286159,-8.551795
49.423070,0.978216,-2.313929,-10.092369
49.456781,0.629847,-1.974389,-10.853004
49.490159,1.224528,-3.838042,-7.260526
49.522880,0.401492,-3.974666,-8.257148
49.556781,1.548505,-2.832292,-10.918997
49.590264,-1.297105,-3.707554,-10.822926
49.623527,-0.014066,-2.301658,-9.408202
49.656871,-0.846979,-2.528517,-9.957092
49.690287,0.040254,-3.483239,-8.764138
49.722917,0.401642,-3.913313,-9.360615
49.756847,1.604472,-3.800033,-8.654001
49.790327,0.868677,-3.596070,-7.838896
49.822770,1.685578,-3.507481,-11.066545
49.857129,2.043524,-2.195861,-8.846442
49.889720,2.328594,-3.322672,-7.292550
49.923149,0.241973,-3.199965,-7.227455
49.956987,1.772820,-1.899568,-7.847725
49.990219,4.365833,-2.155756,-10.485930
50.023512,0.195583,-3.393453,-9.765848
50.056843,0.814357,-3.506284,-9.935843
50.090592,0.716640,-3.571827,-7.433214
50.123527,1.161977,-3.940099,-7.862839
50.156650,1.760998,-4.265572,-9.510707
50.190237,-1.497178,-3.437448,-7.984199
50.222922,-1.148061,-3.677176,-8.981869
50.256493,2.313031,-1.845397,-9.751932
50.289494,0.497563,-4.747422,-9.975348
50.322873,-0.607550,-4.017464,-8.080869
50.356940,0.906687,-4.193444,-6.571271
50.390097,0.941703,-3.077258,-7.398946
50.422977,0.027834,-2.296720,-12.895481
50.457120,-0.191393,-2.208131,-10.305311
50.490102,1.006050,-3.178566,-7.976418
50.523504,0.368720,-4.232651,-7.366024
50.557089,1.740048,-3.270297,-8.014427
50.590131,1.088652,-3.934113,-9.565177
50.623277,0.729360,-3.862584,-10.081745
50.656906,3.581554,-3.096262,-11.133735
50.690133,0.672196,-2.037089,-9.552906
50.723015,1.503014,-3.220616,-9.984776
50.756408,3.528880,-2.852045,-10.950721
50.789374,3.123647,-2.256017,-12.151307
50.823047,0.623712,-4.405339,-6.762215
50.856425,0.672196,-2.767946,-7.851616
50.890179,2.028261,-2.446213,-8.635894
50.922912,0.380392,-1.822202,-11.506345
50.956877,1.743490,-4.394864,-8.517228
50.989580,0.915366,-3.926781,-9.384857
51.023345,2.655115,-4.658235,-9.045766
51.056894,-0.145902,-2.784406,-7.563403
51.090121,1.243832,-2.301060,-10.746309
51.123454,-1.311620,-3.925284,-7.569988
51.156785,1.660887,-4.123860,-9.082878
51.190110,0.719633,-4.595834,-7.509682
51.223446,-0.424836,-3.477104,-8.463356
51.256849,0.911625,-2.438133,-12.145919
51.296067,1.386143,-2.033049,-10.876349
51.323035,2.641946,-3.296634,-12.438771
51.356788,-0.743277,-3.167792,-10.094015
51.390131,-0.285668,-4.859954,-8.612401
51.423169,-1.604322,-3.148937,-7.085294
51.456852,0.792359,-3.257128,-9.436933
51.489565,0.132135,-2.129718,-8.949995
51.522712,0.786224,-2.196908,-8.520669
51.556853,1.056030,-1.965710,-8.782096
51.589607,1.690367,-4.179677,-7.874661
51.622873,0.846081,-2.746247,-8.078325
51.656849,3.161656,-1.809782,-9.723799
51.689502,-1.130852,-4.198831,-8.046750
51.723507,1.513638,-4.516673,-10.416646
51.756926,2.584034,-2.521334,-9.593909
51.789389,-0.247509,-3.650839,-9.121037
51.822841,0.637928,-2.980289,-12.227026
51.856971,0.619522,-3.086835,-9.246438
51.889370,0.158023,-4.298045,-8.504358
51.922588,1.120676,-3.684209,-9.221896
51.956851,1.025802,-4.157530,-9.440974
51.989088,-0.272500,-2.963978,-10.803473
52.022960,0.996023,-3.757834,-9.261252
52.056920,2.122685,-3.651438,-10.639913
52.090455,1.348882,-3.994419,-9.763604
52.123503,-0.570888,-2.998246,-10.069025
52.156790,3.485783,-2.531210,-9.653167
52.190097,0.575527,-4.637435,-8.728523
52.223496,0.872718,-3.419940,-8.127557
52.256774,0.638377,-3.071122,-8.182177
52.290115,1.031638,-2.476291,-9.025864
52.323091,0.899354,-2.970263,-9.007907
52.356909,0.205310,-3.414702,-9.690428
52.390093,0.116721,-3.511521,-10.270295
52.422820,2.382316,-3.507780,-8.780898
52.456787,1.681388,-3.948329,-8.631704
52.490132,2.120291,-3.318632,-8.112443
52.523105,0.532879,-2.434541,-8.763091
52.557023,0.976420,-2.996899,-10.214777
52.589718,2.185535,-4.190152,-8.250714
52.623168,-1.665825,-3.881289,-7.912221
52.656848,1.196695,-2.534054,-11.725722
52.689226,0.845034,-3.856598,-8.366537
52.723517,-0.817799,-2.811791,-8.034629
52.756797,0.702873,-2.689682,-10.106286
52.790221,1.015477,-3.571079,-8.753514
52.823228,0.580315,-1.859912,-8.838511
52.856537,0.749562,-2.046218,-10.009168
52.890183,0.430523,-2.832442,-9.748340
52.923006,1.257300,-2.729637,-9.647630
52.956780,2.358822,-2.647932,-10.595918
52.990220,-0.534674,-4.880904,-8.162424
53.023071,0.884091,-3.442686,-9.907710
53.056877,1.553892,-2.432296,-8.429836
53.090179,1.223930,-3.617918,-9.770936
53.122930,0.353756,-4.730962,-10.255031
53.156777,1.978429,-3.014408,-11.281282
53.190188,0.302129,-3.039996,-9.511455
53.222888,0.018705,-1.656098,-11.085400
53.257156,0.380692,-4.074628,-8.609857
53.290131,0.348369,-2.523878,-9.884066
53.323512,1.399311,-3.168540,-10.319078
53.356953,2.747145,-3.093419,-11.497517
53.389997,-0.051776,-3.117063,-7.513572
53.423861,1.520073,-4.722582,-6.251334
53.457573,3.351254,-4.633095,-8.873677
53.489796,1.273761,-3.313244,-8.992943
53.523021,0.132883,-3.017999,-9.521032
53.556769,1.509149,-2.267989,-10.864078
53.590114,0.419898,-3.500897,-8.039118
53.622925,0.423190,-3.383577,-10.174074
53.656781,-0.254543,-1.659391,-11.632195
53.690103,-0.572235,-3.984543,-8.687372
53.722913,0.487537,-2.823313,-9.931802
53.756893,0.424986,-2.748342,-8.119327
53.789683,-0.482599,-4.012077,-8.644424
53.823423,1.969451,-2.100837,-9.812537
53.856829,2.346401,-3.045833,-10.448071
53.890011,0.430373,-3.035657,-8.462159
53.923484,0.462247,-3.261019,-7.252595
53.955812,3.871562,-3.214480,-8.183673
53.990098,-0.361088,-3.836995,-9.155754
54.022863,0.556372,-3.207597,-7.764823
54.056774,2.644191,-2.320064,-7.804628
54.089843,1.032087,-2.995104,-8.882656
54.123427,-0.291355,-3.374748,-9.665288
54.156727,1.898520,-1.208965,-10.338682
54.190060,0.038009,-3.487728,-8.016971
54.223044,0.202168,-2.161592,-10.235578
54.256741,1.289324,-3.166445,-8.740794
54.290083,1.409786,-2.126426,-10.381779
54.323570,0.315597,-3.571079,-9.169222
54.356787,1.918722,-2.766150,-8.446147
54.390129,2.135106,-3.186497,-10.719972
54.422869,0.473620,-2.883021,-10.050020
54.456777,2.853392,-3.431163,-9.995999
54.490089,2.763606,-1.374470,-9.592113
54.523584,0.648403,-3.538307,-9.201545
54.556780,1.489097,-3.490871,-10.035954
54.590094,2.584334,-3.294539,-9.585080
54.623694,1.102420,-2.564431,-9.038434
54.656775,-0.058510,-3.432061,-8.811725
54.690112,0.834259,-1.990102,-8.336758
54.723510,0.522553,-2.777672,-8.759799
54.756771,0.711103,-2.823762,-8.387786
54.790113,0.788469,-3.429966,-8.711315
54.823578,1.738252,-3.074115,-10.457947
54.856774,0.435611,-2.804608,-7.746566
54.890111,0.721578,-2.616357,-9.910254
54.923518,0.293001,-3.957457,-7.840991
54.955913,1.889242,-3.462289,-8.747678
54.990189,1.724934,-3.314442,-6.441680
55.023332,2.894843,-1.739899,-9.396679
55.055908,0.300782,-2.544828,-8.031187
55.090616,1.416969,-4.496471,-9.788893
55.123055,1.557484,-3.249197,-6.000233
55.156020,1.701291,-2.844712,-9.867606
55.190271,-0.140814,-3.506284,-6.923081
55.222866,2.134956,-2.622642,-10.134868
55.256560,1.003206,-1.050942,-8.597137
55.290283,2.185386,-3.179164,-6.434048
55.322838,2.377976,-4.163516,-9.153809
55.356890,2.072106,-3.594124,-9.458033
55.389409,1.410235,-2.540638,-10.440738
55.422835,0.992582,-3.037602,-9.195110
55.456833,2.431399,-2.517892,-10.259072
55.490147,0.689255,-4.120718,-8.339452
55.522882,1.778207,-4.389776,-9.932850
55.556923,0.342832,-4.308220,-9.526869
55.590124,0.524499,-1.630360,-12.463611
55.623155,0.670849,-4.240432,-7.148444
55.656868,0.989888,-2.770639,-9.576550
55.695864,0.829471,-3.929025,-9.015539
55.723133,0.968340,-2.752083,-8.281390
55.756789,0.675638,-3.367415,-6.354288
55.790117,1.298751,-1.244281,-12.004806
55.823151,0.018256,-3.062443,-8.874725
55.856846,1.152101,-2.307943,-8.685726
55.889516,1.736756,-3.387018,-9.204538
55.923537,0.416307,-2.305848,-10.358883
55.956866,1.036726,-2.426610,-7.717536
55.990115,2.155008,-3.438945,-8.520819
56.022789,-0.505344,-2.682799,-8.370727
56.056800,0.495767,-1.327932,-11.201074
56.090180,1.510646,-4.648957,-9.070458
56.122946,2.273226,-2.206785,-10.279273
56.157238,0.382637,-3.042391,-9.046515
56.190105,0.122707,-2.383513,-9.630870
56.223150,1.278849,-1.824297,-8.893580
56.256626,2.007161,-3.178715,-8.876820
56.290107,3.269100,-3.570930,-10.162402
56.323513,1.040018,-2.839625,-10.245304
56.356806,1.460665,-1.634849,-12.496682
56.390089,0.820941,-2.965025,-7.452518
56.423544,1.644875,-3.237974,-9.422119
56.456335,1.426696,-4.737845,-6.820127
56.490113,1.144469,-3.227050,-11.576528
56.523594,1.675253,-3.781477,-7.538862
56.556288,2.443819,-3.516460,-8.466948
56.590089,0.967442,-2.628029,-10.101348
56.623132,-0.265317,-1.867843,-9.507116
56.656259,0.613686,-1.587712,-9.025714
56.690147,0.015413,-1.365193,-9.252723
56.722959,0.378447,-1.650412,-10.310249
56.756199,-0.106396,-3.053913,-8.253557
56.790159,0.260229,-2.366454,-8.148507
56.823512,1.905104,-2.928662,-9.285345
56.856788,0.551434,-3.671041,-10.668345
56.889827,0.005387,-2.568023,-10.198466
56.922902,1.281841,-2.105626,-10.242611
56.956781,1.209265,-2.802363,-9.370192
56.990015,1.713262,-2.820171,-8.616591
57.023126,2.797425,-2.205887,-8.455874
57.056850,1.524413,-1.900166,-10.154172
57.089395,0.553230,-1.868442,-9.678158
57.123136,0.845632,-2.509213,-9.255117
57.156856,2.120740,-2.712428,-9.516394
57.189597,2.399076,-2.102334,-9.672920
57.223039,0.529586,-2.064923,-9.915192
57.256733,1.352922,-2.081384,-9.252124
57.290091,2.117897,-2.130317,-9.096795
57.323091,1.570802,-3.003184,-9.212768
57.356806,2.038586,-2.516845,-9.645685
57.390077,1.134294,-2.988519,-9.496940
57.423030,3.948030,-2.674568,-9.846207
57.456896,3.050771,-2.817328,-8.487898
57.490193,0.476762,-2.562785,-9.208129
57.523282,1.243533,-3.616720,-8.056926
57.556759,1.571251,-2.962930,-8.903905
57.590089,1.711317,-1.907199,-10.353047
57.623288,-0.051028,-2.340565,-9.351637
57.656777,-1.301594,-2.171170,-9.587923
57.689602,-0.853713,-0.879901,-10.278974
57.723517,0.234490,-0.990636,-10.760525
57.756798,0.058061,-2.467313,-9.392340
57.790111,-0.631493,-4.302684,-9.477187
57.823602,0.071829,-3.472315,-9.547968
57.857340,1.898520,-1.854375,-8.922012
57.890090,2.343109,-1.164821,-9.008805
57.922842,1.709222,-2.142737,-8.095833
57.956828,1.659391,-2.578947,-9.503225
57.990140,1.551049,-3.290499,-9.356425
58.023478,1.267925,-3.684658,-8.369680
58.056763,1.035380,-3.197271,-8.528451
58.090110,1.678246,-2.072256,-9.518937
58.123439,1.902860,-2.314079,-9.370043
58.156803,1.933088,-2.357924,-9.588970
58.190133,0.420497,-2.573559,-9.503674
58.223635,0.581812,-2.453246,-9.511904
58.256274,1.742442,-1.915280,-10.255181
58.290158,0.863589,-2.638056,-9.835881
58.323981,0.813609,-3.182905,-9.628626
58.356457,0.600816,-2.429154,-9.172963
58.389463,0.608748,-1.980225,-8.712212
58.423572,0.489632,-1.688571,-9.397128
58.456762,1.356513,-1.080123,-9.285046
58.490113,1.911240,-1.801103,-9.880774
58.523598,1.470541,-2.757620,-8.646818
58.556669,2.810893,-2.690281,-8.769077
58.590114,1.406344,-3.609687,-8.892532
58.623078,0.928385,-2.087220,-9.872843
58.656694,2.771537,-1.658642,-9.075845
58.690330,2.073453,-2.047415,-9.639250
58.722846,2.708088,-2.030505,-9.040379
58.756851,2.127773,-1.795266,-9.919232
58.790185,1.344841,-1.927850,-9.347447
58.823046,1.357710,-1.843302,-9.938686
58.856079,2.067467,-2.523279,-9.303452
58.890149,2.364359,-2.193915,-10.715183
58.925532,2.393838,-2.644490,-9.203191
58.956757,0.630745,-2.850698,-9.382164
58.990113,0.953525,-0.264868,-9.867157
59.023566,3.247402,-0.457758,-9.597051
59.057201,0.749711,-0.987494,-9.856233
59.089734,3.640514,-0.121959,-10.046279
59.122875,3.284064,-0.485142,-10.998457
59.157211,3.932467,-2.530462,-9.131662
59.189756,6.651779,-3.281819,-9.610369
59.223466,-0.474967,-3.073068,-8.979924
59.256802,0.601714,-5.111803,-8.829832
59.290116,-4.198682,-5.038628,-9.850696
59.322972,-4.705672,-1.090149,-8.477123
59.356843,0.644363,0.276091,-10.027125
59.390301,1.607614,-2.033648,-11.695644
59.423011,-5.496086,-0.896511,-11.196435
59.456843,0.887233,-2.791440,-9.763604
59.490120,-0.279084,-3.692889,-9.003268
59.523345,2.906365,-1.672410,-7.935266
59.556850,4.212599,-2.096947,-9.138994
59.590245,4.416263,-1.115738,-9.671873
59.623327,5.059428,-1.128906,-8.537729
59.657236,3.058552,-1.482064,-9.747742
59.690130,1.566013,-1.487750,-8.739447
59.723450,2.435738,-3.719375,-8.749324
59.756845,2.097844,-3.938602,-8.267922
59.790102,1.771623,-4.511136,-8.436869
59.823449,2.332634,-4.751762,-8.805440
59.857087,2.732181,-3.786715,-8.826091
59.889401,2.472999,-3.768159,-8.876670
59.923527,1.871734,-3.762024,-8.598933
59.956817,2.759416,-3.343472,-8.390779
59.989473,3.123647,-3.620761,-8.897770
60.022905,2.686540,-3.376693,-8.701887
60.056854,3.323420,-3.192183,-8.703683
60.094267,2.471054,-3.324318,-9.451897
60.122787,2.375133,-2.956645,-9.166977
60.156268,2.827204,-2.329192,-9.506068
60.190180,2.128372,-2.194364,-9.313777
60.223534,2.277865,-2.301509,-9.170569
60.256819,2.099790,-2.404762,-9.060581
60.290131,2.242400,-2.440976,-9.142286
60.323303,2.783060,-2.330090,-9.330986
60.356833,2.410748,-2.464170,-9.201694
60.390182,2.662298,-2.602141,-9.171317
60.423816,2.999892,-2.759715,-9.024218
60.456892,2.730385,-2.922676,-9.022273
60.489989,2.618452,-3.107635,-9.059983
60.523519,3.028624,-3.294988,-8.818758
60.556851,2.185086,-3.463935,-8.888492
60.590799,2.195412,-3.358437,-8.972142
60.623360,2.382316,-3.273290,-9.007608
60.656891,1.697400,-3.196224,-9.017933
60.690328,1.765787,-3.192782,-8.976033
60.723525,1.931591,-3.183654,-9.091557
60.756854,1.659540,-3.164200,-9.092305
60.790298,1.721343,-3.189190,-9.021225
60.823555,1.645623,-3.160609,-9.042474
60.856805,1.558232,-3.117212,-9.050555
60.890114,1.489845,-3.110628,-9.167875
60.923642,1.325986,-3.126340,-9.089163
60.956795,1.454978,-3.130680,-9.077491
60.990181,1.520223,-3.220616,-9.127322
61.022927,1.558831,-3.204155,-9.073600
61.056834,1.612702,-3.166295,-9.074348
61.090655,1.548206,-3.196822,-9.045467
61.130978,1.881610,-3.250993,-9.081531
61.156758,1.802150,-3.251592,-9.013444
61.190103,1.770875,-3.286608,-9.003118
61.223243,2.100538,-3.314142,-9.061180
61.256891,1.890888,-3.326862,-9.002819
61.290143,2.055047,-3.295886,-8.970047
61.322978,2.211423,-3.275834,-9.035740
61.356836,1.882658,-3.263264,-9.003268
61.390696,2.149920,-3.246653,-9.040080
61.423634,2.178203,-3.226152,-9.000724
61.456916,2.031403,-3.253238,-9.000425
61.490203,2.190473,-3.233036,-9.036788
61.523600,2.080037,-3.182157,-9.004315
61.557174,2.096647,-3.217323,-9.132410
61.589948,2.002522,-3.174825,-9.002819
61.622899,2.025417,-3.150732,-9.016137
61.655858,2.008807,-3.183205,-9.077940
61.690115,1.876074,-3.145345,-9.020776
61.722906,2.075997,-3.149685,-9.080035
61.756849,1.852580,-3.150882,-9.055194
61.790127,1.933387,-3.134870,-9.026163
61.822937,2.100688,-3.168390,-9.075097
61.856848,1.800654,-3.207148,-9.086769
61.890961,1.978579,-3.228846,-9.013593
61.922939,1.959874,-3.238573,-9.034992
61.956050,1.842703,-3.273589,-9.084674
61.990181,1.896275,-3.291397,-8.979774
62.023535,1.831480,-3.265059,-9.068812
62.056913,1.847641,-3.271793,-9.025565
62.090160,1.853178,-3.270447,-9.001921
62.123516,1.789131,-3.277629,-9.075545
62.156793,1.777309,-3.281371,-8.997133
62.190179,1.848689,-3.276283,-8.982318
62.223512,1.820107,-3.296185,-9.017185
62.259759,1.848240,-3.300974,-8.998180
62.290121,1.922912,-3.283017,-9.049657
62.323644,1.758604,-3.267005,-9.030054
62.357750,1.847342,-3.248000,-9.043372
62.389981,1.777459,-3.221513,-9.060132
62.423291,1.720445,-3.197870,-9.105175
62.457422,1.829086,-3.237824,-9.017035
62.490186,1.832677,-3.289002,-9.063424
62.523355,1.842254,-3.308306,-9.052351
62.556845,1.851532,-3.298579,-8.971544
62.590186,1.866646,-3.311299,-9.042474
62.623393,1.768331,-3.303518,-9.009403
62.656773,1.883107,-3.302620,-9.045916
62.690166,1.684231,-3.292444,-9.035441
62.723575,1.681239,-3.267903,-9.033795
62.756916,1.730471,-3.271943,-9.070158
62.790122,1.496878,-3.347662,-9.047263
62.823564,1.546111,-3.208794,-9.087816
62.856844,1.729872,-3.254884,-9.023470
62.890332,1.545063,-3.278078,-9.027660
62.923299,1.578583,-3.271045,-8.960470
62.956884,1.523515,-3.237376,-8.956130
62.990262,1.167814,-3.127089,-9.060880
63.023520,1.836418,-3.169887,-9.083626
63.056939,2.883620,-3.368313,-8.936527
63.091297,3.217623,-3.420090,-8.916026
63.124214,3.552972,-3.364273,-8.880710
63.157334,3.508379,-3.528132,-9.081681
63.189741,1.628265,-3.597267,-8.473682
63.223543,1.668369,-3.433557,-9.026911
63.256726,0.704369,-3.299477,-9.155305
63.290181,0.539014,-3.264311,-8.838062
63.323500,1.628265,-3.296933,-9.027061
63.356165,1.797661,-3.484885,-8.975734
63.390115,2.753730,-3.617469,-8.807236
63.423201,3.075611,-3.655029,-8.917822
63.456963,2.886463,-3.637371,-8.836416
63.490207,2.533605,-3.498802,-8.899266
63.523285,1.785091,-3.435054,-9.020776
63.556849,1.563619,-3.395698,-8.918121
63.590340,1.425050,-3.282268,-9.026911
63.624154,1.551199,-3.201312,-9.092904
63.656844,1.718949,-3.044037,-9.137647
63.690182,1.813074,-2.894244,-9.160543
63.723559,1.821304,-2.862670,-9.220250
63.756816,1.637543,-2.840373,-9.200946
63.790173,1.422506,-2.859826,-9.222944
63.823557,1.358459,-2.856385,-9.220549
63.856826,1.181581,-2.804010,-9.242098
63.890185,1.123819,-2.799969,-9.259008
63.923907,1.247274,-2.866111,-9.190471
63.956964,1.526508,-2.953503,-9.224440
63.991130,1.887895,-3.068129,-9.174609
64.023653,1.833425,-3.157915,-9.086619
64.057675,1.634400,-3.278827,-9.052800
64.090140,1.477724,-3.353498,-9.068213
64.122990,1.394523,-3.383427,-9.050705
64.156785,1.507653,-3.400935,-9.021674
64.190168,1.651460,-3.387168,-9.032299
64.223423,1.810680,-3.377890,-9.033496
64.256869,2.003719,-3.326862,-9.035591
64.290804,1.910791,-3.264012,-9.071206
64.323048,1.783295,-3.211787,-9.110412
64.356846,1.719397,-3.183205,-9.097693
64.391166,1.796763,-3.176770,-9.100536
64.423899,1.708922,-3.159860,-9.107120
64.456847,1.687673,-3.123048,-9.158597
64.490093,1.587712,-3.117362,-9.127621
64.522829,1.373124,-3.021740,-9.252423
64.556792,1.108705,-3.005579,-9.099339
64.590763,1.021163,-2.993158,-9.146177
64.623274,1.193552,-3.094766,-9.217108
64.656881,1.476228,-3.143400,-9.092305
64.690727,1.774316,-3.127837,-9.091258
64.724084,2.134806,-3.114519,-9.129866
64.756850,2.138398,-3.130979,-9.082878
64.789401,2.123583,-3.087882,-9.107120
64.823470,1.875924,-3.063790,-9.130015
64.856853,1.894629,-3.090426,-9.098142
64.891933,2.013595,-3.157765,-9.068512
64.923284,2.036042,-3.228996,-9.057139
64.956852,2.079438,-3.260421,-9.037386
64.990543,2.011351,-3.312945,-9.015090
65.022933,1.904356,-3.302021,-9.043223
65.056928,1.752469,-3.289302,-9.038733
65.090725,1.659540,-3.293941,-9.051752
65.123960,1.708025,-3.321924,-9.007907
65.157804,1.838513,-3.328059,-9.016287
65.190184,1.855573,-3.319529,-9.048161
65.223048,1.859314,-3.273439,-9.033645
65.256998,1.688421,-3.169438,-9.105923
65.290238,1.591602,-3.110179,-9.090809
65.323448,1.626619,-3.071421,-9.137947
65.356750,1.686775,-3.052267,-9.144232
65.390146,1.856919,-3.045234,-9.123880
65.423139,1.919320,-3.043438,-9.124628
65.456801,1.891636,-3.055559,-9.139892
65.490138,1.900016,-3.106737,-9.107569
65.523502,1.870537,-3.166295,-9.086020
65.556782,1.760250,-3.205651,-9.077640
65.590224,1.662533,-3.187993,-9.100536
65.623836,1.552695,-3.179763,-9.088115
65.656968,1.516182,-3.166744,-9.088864
65.690186,1.540724,-3.164050,-9.116697
65.723512,1.622578,-3.178566,-9.096047
65.756568,1.658193,-3.199815,-9.096196
65.790217,1.659391,-3.210889,-9.092305
65.823371,1.658942,-3.202060,-9.106372
65.857536,1.711616,-3.179464,-9.084075
65.890306,1.700542,-3.175723,-9.082429
65.923603,1.782846,-3.190088,-9.079885
65.956857,1.793321,-3.195625,-9.102182
65.990261,1.776711,-3.181858,-9.099189
66.023395,1.793920,-3.157167,-9.107569
66.056966,1.762345,-3.169887,-9.090659
66.090857,1.740946,-3.148787,-9.097094
66.123834,1.629911,-3.145195,-9.125227
66.157052,1.545662,-3.165996,-9.103678
66.190181,1.550600,-3.206100,-9.073002
66.223442,1.622279,-3.232737,-9.096795
66.256852,1.692162,-3.275684,-9.055793
66.290257,1.763243,-3.273140,-9.045018
66.324559,1.774167,-3.226003,-9.073899
66.357007,1.761148,-3.195924,-9.096645
66.390601,1.746483,-3.131578,-9.099039
66.423323,1.765487,-3.085338,-9.127472
66.457106,1.794668,-3.050172,-9.148870
66.490506,1.770126,-3.044785,-9.141089
66.522937,1.812176,-3.074414,-9.116248
66.556852,1.761148,-3.107336,-9.108467
66.590181,1.689619,-3.117063,-9.134804
66.623439,1.660139,-3.105540,-9.122982
66.656781,1.511244,-3.088331,-9.118493
66.690294,1.481465,-3.081448,-9.160842
66.723354,1.515135,-3.095963,-9.129267
66.756932,1.621681,-3.125443,-9.126274
66.790111,1.712065,-3.143849,-9.113704
66.823579,1.785989,-3.165697,-9.093353
66.856852,1.732716,-3.192183,-9.097992
66.890192,1.739001,-3.201760,-9.090659
66.923530,1.773119,-3.213433,-9.082279
66.956854,1.801701,-3.210440,-9.078089
66.990184,1.839860,-3.229295,-9.081232
67.023531,1.713412,-3.222711,-9.089313
67.057478,1.701590,-3.220316,-9.070607
67.090382,1.653405,-3.210140,-9.091258
67.124015,1.737205,-3.231390,-9.071954
67.156784,1.772970,-3.250843,-9.079137
67.190447,1.788682,-3.259074,-9.064322
67.223757,1.714160,-3.255782,-9.073899
67.256893,1.572747,-3.241117,-9.074348
67.290347,1.455427,-3.205053,-9.092156
67.323557,1.412629,-3.182606,-9.111759
67.356849,1.523515,-3.132925,-9.110113
67.390169,1.678695,-3.113172,-9.120887
67.423355,1.801103,-3.117362,-9.119241
67.456844,1.834024,-3.122300,-9.111160
67.490229,1.874577,-3.163003,-9.099638
67.522994,1.920218,-3.165397,-9.101284
67.556869,1.895677,-3.187993,-9.096346
67.599367,1.746632,-3.197122,-9.094550
67.623160,1.700094,-3.194727,-9.103678
67.656879,1.644277,-3.200414,-9.090959
67.690615,1.573346,-3.185300,-9.097543
67.723153,1.573346,-3.181409,-9.114303
67.756847,1.567061,-3.146093,-9.120738
67.789415,1.552246,-3.109431,-9.122533
67.822852,1.587562,-3.107934,-9.133158
67.857326,1.574543,-3.115417,-9.137198
67.890703,1.622130,-3.123797,-9.132559
67.923454,1.703835,-3.136217,-9.102332
67.956975,1.689020,-3.123946,-9.110861
67.990934,1.761597,-3.141155,-9.116548
68.023860,1.835371,-3.202808,-9.094400
68.057975,1.859763,-3.221064,-9.092156
68.090716,1.747680,-3.219119,-9.073002
68.124146,1.620184,-3.197720,-9.099638
68.157170,1.583671,-3.190388,-9.100835
68.190163,1.572747,-3.185000,-9.105324
68.223877,1.570054,-3.163751,-9.117445
68.256849,1.533990,-3.144298,-9.134804
68.290335,1.517230,-3.145495,-9.107419
68.323186,1.634550,-3.169587,-9.092455
68.357131,1.734062,-3.189939,-9.098291
68.390948,1.773718,-3.187245,-9.084674
68.423247,1.767283,-3.187544,-9.085572
68.456971,1.763392,-3.177967,-9.093054
68.490351,1.731668,-3.202359,-9.100386
68.523693,1.756060,-3.199965,-9.088415
68.556848,1.717003,-3.199815,-9.099788
68.590158,1.699794,-3.196523,-9.103529
68.623255,1.629013,-3.182008,-9.091557
68.656944,1.586963,-3.157765,-9.121635
68.690159,1.564367,-3.130979,-9.122533
68.723953,1.573496,-3.140407,-9.116248
68.756847,1.625721,-3.143699,-9.112657
68.789974,1.648916,-3.139060,-9.117745
68.823254,1.642631,-3.112124,-9.116697
68.856998,1.637094,-3.113471,-9.125825
68.890253,1.651908,-3.128136,-9.133607
68.923784,1.703835,-3.155970,-9.110113
68.957069,1.691414,-3.169288,-9.101733
68.990433,1.663281,-3.169587,-9.106671
69.023576,1.613750,-3.181708,-9.111909
69.057216,1.529949,-3.180661,-9.088415
69.090183,1.517529,-3.153725,-9.114752
69.123236,1.527406,-3.144148,-9.119540
69.156880,1.646521,-3.192932,-9.088115
69.190435,1.709222,-3.236777,-9.072403
69.223830,1.730172,-3.243661,-9.081082
69.256843,1.734511,-3.220765,-9.079436
69.290183,1.729274,-3.204604,-9.078389
69.324469,1.663880,-3.142053,-9.088265
69.356838,1.729424,-3.134421,-9.144381
69.390181,1.832827,-3.155521,-9.078838
69.423421,1.845546,-3.157915,-9.087517
69.457012,1.890739,-3.132326,-9.108467
69.490585,1.834922,-3.127388,-9.102182
69.523502,1.798259,-3.105390,-9.079137
69.556949,1.825943,-3.115117,-9.127322
69.590320,1.766984,-3.104044,-9.112507
69.623590,1.883705,-3.137264,-9.080184
69.657170,1.880862,-3.136965,-9.118942
69.690501,2.269485,-3.262366,-9.090809
69.724048,1.862306,-3.136367,-9.177303
69.757081,1.578583,-3.203257,-9.110562
69.791056,1.546261,-3.238124,-9.037835
69.823832,1.396468,-3.263114,-9.138994
69.856913,1.807986,-3.208943,-9.069560
69.890348,2.050707,-3.256380,-9.060880
69.922738,2.613364,-3.354696,-9.111310
69.956781,3.046880,-3.446576,-8.924107
69.990215,2.968467,-3.489374,-8.941765
70.023454,3.167492,-3.347962,-8.962415
70.057217,2.681751,-3.680468,-8.860509
70.090963,2.339817,-3.636922,-8.830430
70.123564,1.904506,-3.595621,-8.946254
70.156831,0.704818,-3.487878,-8.968551
70.190118,0.439052,-3.548483,-9.070607
70.223514,-0.092180,-3.422334,-9.045168
70.256985,-0.555475,-3.124694,-9.085422
70.290203,-0.411817,-2.983282,-9.252423
70.323496,-0.963551,-2.957543,-9.330238
70.356862,-0.943948,-2.919534,-9.402515
70.390471,-0.522104,-2.906365,-9.268884
70.424576,-1.192205,-2.675466,-9.331285
70.456910,-1.152400,-2.549168,-9.427955
70.490179,-1.157937,-2.466714,-9.524624
70.524156,-1.592500,-2.483025,-9.495593
70.556917,-0.977318,-2.625785,-9.417180
70.590413,-1.128757,-2.736820,-9.399672
70.623252,-1.150904,-2.841271,-9.346998
70.656928,-0.750459,-3.015455,-9.281454
70.690150,0.749562,-3.426674,-9.067165
70.723156,2.206785,-3.821282,-9.141987
70.757363,2.724549,-3.763819,-9.063424
70.791403,1.378960,-3.147889,-9.247186
70.823244,-0.574479,-2.771238,-9.453394
70.856859,-0.743725,-2.641198,-9.305397
70.890722,-0.163410,-2.752383,-9.294772
70.924120,-0.076468,-2.771088,-9.390095
70.956854,0.465988,-2.790392,-9.345501
70.991356,-0.523900,-1.941917,-9.763604
71.023291,-1.309376,-2.015242,-9.288637
71.056813,-1.129206,-2.126277,-9.692673
71.090148,-0.866882,-2.191222,-9.367499
71.123218,-1.384497,-2.025268,-9.561586
71.156915,-1.753516,-2.002672,-9.553655
71.190306,-1.295758,-2.278015,-9.384259
71.223798,-1.357710,-2.350292,-9.456387
71.257104,-1.665676,-2.363012,-9.403263
71.290213,-0.825879,-2.947816,-9.177003
71.323421,-0.650049,-3.072619,-9.245839
71.357160,-0.654389,-3.134720,-9.193614
71.390213,-0.292253,-3.256679,-9.218903
71.423801,-0.436060,-3.117212,-9.210374
71.456876,-0.931078,-2.897087,-9.596901
71.490182,-0.411967,-2.577600,-9.050854
71.524009,-0.180619,-3.403479,-8.649662
71.556808,-0.378597,-3.715784,-9.443667
71.590027,-0.209500,-2.762708,-9.459080
71.624828,0.597375,-3.584996,-8.818160
71.657034,0.411069,-3.489973,-9.099638
71.690353,1.233058,-3.450018,-9.604683
71.723704,1.856321,-3.754691,-9.171317
71.757007,1.943862,-4.015519,-9.250029
71.790316,2.102633,-4.146905,-9.293276
71.823225,1.694557,-3.791653,-9.183737
71.858057,0.584805,-3.136367,-8.875323
71.890370,0.023793,-2.612167,-9.530310
71.923609,-0.919107,-2.062828,-9.581339
71.957063,-1.418166,-2.177006,-9.377076
71.990325,-1.806639,-2.231326,-9.533154
72.023684,-1.493886,-2.090662,-9.554403
72.056940,-1.179785,-2.277865,-9.440974
72.090841,-1.567211,-2.543631,-9.353133
72.123469,-0.671149,-2.866111,-9.331585
72.156989,-0.939159,-2.735772,-9.235963
72.189881,-1.838364,-2.382615,-9.238058
72.223241,-1.500470,-2.236264,-9.574305
72.257166,-1.631108,-2.200051,-9.588222
72.290356,-0.875860,-2.411646,-9.342658
72.323227,-0.006435,-2.646585,-9.399073
72.356931,-0.115824,-2.876586,-9.366152
72.391622,0.356599,-2.843066,-9.350290
72.423706,0.547394,-2.906365,-9.448755
72.457939,-0.102356,-2.909508,-9.329789
72.490354,0.100261,-5.121979,-8.765186
72.523266,-2.311535,-5.129461,-6.515304
72.558603,0.548292,-3.962994,-8.410233
72.590308,0.195284,-4.057868,-10.352299
72.623705,-1.059173,-3.537110,-8.073836
72.656983,0.090983,-4.216190,-8.226621
72.690153,-1.104664,-2.357924,-9.803409
72.723974,-0.748963,-1.530249,-9.379770
72.758343,-0.406879,-2.604835,-10.022336
72.790650,-0.177626,-1.673008,-9.673519
72.824769,0.922848,-1.851233,-9.209925
72.856977,1.406045,-2.974154,-9.534800
72.890207,1.328380,-2.775428,-9.274571
72.925002,0.753901,-3.119906,-9.155604
72.957263,0.784877,-3.749903,-9.341311
72.990535,0.643465,-3.841185,-8.778055
73.023516,-0.233593,-3.800781,-8.777906
73.057008,0.157275,-3.904484,-9.165032
73.090674,-0.648104,-3.343772,-9.149619
73.123607,-0.977468,-2.943177,-9.254818
73.157354,-0.980161,-2.663196,-9.399672
73.193225,-1.151652,-2.959189,-9.214414
73.223222,-0.891273,-3.112124,-9.412541
73.256924,-0.279683,-3.158813,-9.389496
73.290881,0.014066,-3.142652,-9.254369
73.323073,0.445786,-3.259672,-9.152312
73.357400,0.202467,-3.429517,-8.921712
73.391155,-0.046988,-3.920196,-9.141388
73.423266,-0.137073,-4.157081,-8.702037
73.456847,-0.240626,-3.915707,-9.640896
73.492305,-1.210911,-3.638868,-9.012396
73.523104,-1.864701,-2.838427,-8.849734
73.557009,-2.924622,-2.560241,-9.751782
73.591094,-3.424728,-2.229530,-9.240003
73.623791,-2.339518,-2.140792,-9.402216
73.657744,-0.409124,-3.004681,-9.451449
73.690164,0.263671,-3.404676,-9.084374
73.723380,0.149044,-2.688336,-9.295670
73.757477,0.090235,-2.382016,-9.651072
73.790337,0.408825,-2.524028,-9.560239
73.824112,-0.202467,-1.673607,-9.100536
73.856847,-1.466501,-1.265231,-9.481527
73.890327,-3.677326,-0.810466,-10.093716
73.923504,-2.667685,-1.609111,-9.474494
73.956876,-1.000363,-2.213219,-9.012695
73.990272,-0.974924,-1.932938,-9.714222
74.023495,-0.577921,-2.659754,-9.101134
74.056902,-1.347984,-2.479883,-10.091022
74.090319,-2.082282,-2.255867,-9.015090
74.124304,-3.938752,-2.338919,-9.027061
74.157179,-2.038287,-2.125379,-9.721704
74.190828,-1.806190,-3.060198,-8.971843
74.223377,-1.855872,-3.790755,-8.971843
74.256993,-0.903993,-3.354995,-9.279658
74.290730,-1.018320,-2.826456,-8.941016
74.323716,-0.501603,-3.177518,-8.953287
74.360464,-0.821390,-3.069925,-8.835518
74.390124,-1.213305,-2.811941,-9.637604
74.423158,-0.831865,-3.149685,-10.130678
74.456934,-2.588075,-2.197806,-9.161440
74.490548,-1.944610,-3.389862,-9.292528
74.523110,-1.016076,-3.870365,-8.340649
74.556845,-1.031938,-3.894907,-8.929195
74.590309,0.617726,-3.927978,-9.450401
74.623847,0.654688,-3.182606,-7.995273
74.656852,0.114028,-5.059129,-9.962629
74.690231,-1.387489,-4.941060,-9.847104
74.723672,-2.687587,-3.596369,-8.212255
74.757314,-0.870623,-3.771750,-10.597713
74.790746,-0.564752,-4.743831,-8.516330
74.823159,-0.887083,-4.589100,-8.689616
74.857237,-0.888580,-1.913784,-9.473446
74.890283,-1.278100,-0.497413,-10.805119
74.923518,-0.513126,0.365428,-11.008783
74.957058,1.165719,-1.012634,-9.086170
74.990205,-0.034119,-2.524177,-9.743402
75.023492,0.316495,-3.543844,-8.476525
75.056847,0.296443,-4.779596,-8.521268
75.092271,-3.069626,-3.318632,-8.634997
75.123274,-0.717538,-2.515947,-9.947665
75.156885,2.845461,-3.166445,-9.529263
75.191321,2.357176,-3.157915,-9.312281
75.223234,-0.266364,-3.514814,-9.433791
75.257029,-0.281179,-3.707254,-8.906599
75.291327,2.474047,-3.211188,-9.283699
75.324108,2.999743,-2.085424,-9.600643
75.356833,-0.886485,-2.407007,-10.277178
75.390486,-0.835457,-1.939522,-9.492301
75.423443,2.307644,-1.747830,-9.678607
75.456766,2.605583,-1.194151,-9.757468
75.490091,0.984351,-1.374620,-9.278012
75.522937,1.873530,-2.752532,-9.876135
75.556232,3.577813,-2.861921,-9.299561
75.590118,-0.295694,-3.516759,-8.611353
75.622962,1.271067,-4.362092,-9.074348
75.657442,1.640087,-3.477403,-8.994439
75.690585,1.679892,-2.401769,-9.826753
75.723497,-2.090662,-1.960173,-9.104875
75.756846,-0.966095,-2.096198,-9.945719
75.791160,-0.388473,-2.925520,-9.169671
75.823605,0.428877,-2.891401,-9.657806
75.856904,-1.488199,-3.007524,-8.991895
75.890416,0.502202,-2.964726,-9.537942
75.923444,1.208516,-3.039847,-9.140191
75.956783,1.399610,-2.968467,-9.311682
75.990181,-0.764227,-2.915643,-9.691476
76.023029,-0.057164,-2.790542,-9.356725
76.056896,0.125550,-2.701055,-9.468657
76.090064,-0.661871,-2.749240,-9.479282
76.123536,-1.474881,-2.880327,-9.289834
76.157203,-0.732053,-3.095215,-9.192866
76.191402,-0.508786,-3.304116,-9.137647
76.223636,0.301979,-3.606245,-9.118792
76.256827,0.496066,-3.809161,-8.966456
76.291022,-0.153534,-3.855401,-9.187927
76.323558,-0.565501,-3.733891,-8.916176
76.356484,-0.870772,-3.304116,-9.262001
76.390170,0.151139,-3.044785,-9.146327
76.423251,0.674740,-2.960536,-9.330238
76.456893,0.688507,-3.046431,-9.228181
76.490260,-0.343879,-3.196224,-9.068812
76.524627,-0.553230,-3.308755,-9.196607
76.556814,0.237783,-3.511222,-8.953437
76.590112,-0.218329,-3.599212,-9.351936
76.622815,-0.587947,-3.416348,-9.213516
76.656781,0.069883,-3.264162,-9.200647
76.690170,0.928834,-3.438795,-9.397128
76.723729,1.045705,-3.591131,-8.989201
76.756920,0.382637,-3.690644,-9.243744
76.790536,0.606653,-3.580357,-8.863052
76.823487,1.327483,-3.664905,-8.992643
76.856956,0.215935,-3.740325,-9.078538
76.890448,0.394160,-3.779233,-9.015988
76.924173,1.097032,-3.662062,-8.970496
76.957059,0.049981,-3.833703,-9.128369
76.990317,-1.151951,-2.845012,-9.648977
77.024323,-0.707063,-2.338770,-9.571911
77.057536,-1.227521,-2.781713,-9.545873
77.089802,1.029992,-3.670143,-8.869487
77.123195,3.274786,-3.675231,-8.818908
77.156844,0.721129,-4.041108,-8.674951
77.190177,-0.808222,-4.060412,-9.066417
77.223916,1.800055,-3.496407,-9.333530
77.256989,1.320150,-3.267154,-9.274870
77.290188,-1.301894,-3.140856,-9.274720
77.323896,0.662769,-3.480994,-9.397427
77.357157,1.501667,-3.499251,-9.221896
77.390181,0.826478,-3.158214,-9.283549
77.423578,1.363247,-2.684295,-9.104875
77.456955,3.016203,-2.444866,-9.155904
77.490341,3.125592,-2.511757,-9.284148
77.523184,1.899268,-2.750737,-9.130614
77.556892,0.495019,-3.039996,-9.274122
77.590180,0.089187,-3.080999,-9.279209
77.624077,1.041365,-3.162404,-9.306744
77.656759,2.305549,-3.114668,-9.138246
77.690114,1.164521,-3.444930,-8.964810
77.722967,1.481166,-3.553571,-9.070458
77.757729,1.612253,-3.237226,-9.364656
77.790312,1.710269,-2.968467,-9.221447
77.823020,0.994377,-2.770639,-9.328292
77.857073,0.726965,-2.562635,-9.402964
77.890111,0.713797,-2.651673,-9.508911
77.923376,0.667707,-2.534652,-9.286392
77.957065,1.679592,-2.777822,-9.000724
77.990198,1.685129,-4.056671,-9.092156
78.023604,0.687609,-4.550492,-9.089612
78.056995,-0.512377,-3.953567,-9.342508
78.090256,-0.492325,-3.254584,-8.816065
78.123480,0.602612,-2.637756,-9.440674
78.156937,-0.139467,-3.313244,-9.084075
78.191578,-0.020202,-4.099169,-9.109365
78.223706,0.533776,-4.462203,-8.916774
78.256857,-0.768716,-4.839154,-8.532342
78.290917,-0.697785,-5.202487,-8.409784
78.323304,0.377998,-5.133202,-8.977080
78.356949,-0.230151,-5.704239,-8.119776
78.390310,-1.756359,-4.748919,-8.205970
78.422965,-0.931228,-5.332975,-8.488945
78.456775,-1.346188,-4.772712,-9.363758
78.490106,-2.096198,-4.274401,-8.632453
78.523095,-1.137137,-4.731710,-7.943347
78.556822,0.476164,-4.517721,-7.811362
78.590186,-0.569840,-5.092948,-8.751868
78.623115,-0.398200,-5.517186,-8.551346
78.656852,0.768865,-5.615801,-8.372523
78.690223,-0.184061,-8.084909,-7.795500
78.723570,-0.253196,-5.930051,-8.169607
78.756597,0.571037,-5.975243,-8.975434
78.790144,1.119928,-5.736562,-7.158320
78.823449,-0.680277,-6.096753,-7.653489
78.856786,0.420646,-4.072682,-9.366601
78.891577,-0.412416,-2.542583,-9.774677
78.924168,-0.254992,-2.040531,-9.928959
78.957061,-1.216298,-0.130189,-9.922225
78.990317,-1.771772,-1.255355,-8.644274
79.025101,-0.837701,-3.709349,-9.073002
79.057312,-1.332720,-4.324532,-9.677260
79.091213,-0.684766,-3.257727,-10.467674
79.124404,-0.551285,-1.914233,-10.562248
79.156738,-0.329963,-1.601928,-8.906000
79.190266,0.150990,-2.544080,-8.387487
79.223614,1.230664,-3.034011,-9.087966
79.257084,-1.514686,-3.648295,-9.044719
79.291927,-0.086793,-3.827118,-9.929707
79.322938,0.708859,-4.138675,-8.265079
79.356846,-0.623113,-1.362200,-10.282565
79.391015,0.466587,-2.150369,-8.828335
79.423363,0.664415,-2.006113,-9.618450
79.457405,1.023258,-2.525075,-9.927463
79.490798,0.650648,-3.456752,-9.351936
79.522942,-2.478087,-2.741159,-8.387487
79.557026,-0.528689,-3.700969,-8.183673
79.591278,0.191693,-1.920069,-9.229827
79.623090,-1.066505,-1.232908,-9.957990
79.657087,-1.104365,-1.548356,-9.846207
79.690174,0.502202,-2.590619,-10.399736
79.723304,0.414661,-2.649279,-9.754625
79.757409,0.860597,-3.024284,-9.482724
79.793561,-0.150092,-3.366966,-9.631170
79.822911,-0.735794,-2.850249,-9.719459
79.856837,-0.066741,-2.548569,-9.678307
79.890120,0.172987,-2.150220,-9.297915
79.925072,0.992282,-2.624438,-9.531657
79.956772,1.075035,-3.480246,-9.215013
79.990116,0.569541,-3.536063,-8.885948
80.023847,-0.738787,-2.695369,-8.725680
80.056776,0.276540,-3.048526,-8.810677
80.090740,1.477874,-2.506819,-9.254668
80.123479,0.012271,-2.212770,-9.719908
80.157083,-0.482000,-2.192120,-9.835881
80.190444,-0.384582,-1.933387,-10.006773
80.225078,-0.937962,-1.585317,-9.541234
80.257367,-0.523451,-2.115652,-9.993156
80.291964,1.006050,-2.897985,-9.188825
80.324504,2.369596,-3.610735,-9.236412
80.356817,0.016311,-3.389562,-8.807535
80.390547,-0.478109,-3.634977,-8.921114
80.423644,-0.449527,-3.227798,-9.376028
80.457163,0.947988,-2.125079,-9.761359
80.491631,2.277117,-2.002073,-10.300373
80.523091,0.129740,-1.963764,-9.760461
80.556773,-1.514985,-2.792337,-9.614410
80.590934,0.069883,-3.596668,-8.821751
80.622896,0.518962,-2.902026,-9.256613
80.656785,-1.283637,-2.996750,-9.037985
80.691026,-0.998567,-3.986937,-8.799903
80.722923,-0.150840,-4.234297,-9.032748
80.756794,-1.106310,-3.687651,-8.966755
80.790738,-1.207918,-2.669929,-9.411045
80.823067,0.014066,-2.903223,-9.327694
80.857313,-0.084399,-3.827418,-9.056391
80.890639,0.267113,-4.635340,-8.196243
80.924364,0.605904,-2.676065,-8.670612
80.956905,0.177776,-2.861472,-9.225787
80.990116,-0.853713,-3.518255,-9.096645
81.023682,0.581812,-3.836247,-9.259008
81.057821,0.273996,-4.083008,-8.863352
81.090214,-0.481102,-3.776838,-9.179996
81.124036,-0.110287,-3.632583,-9.370941
81.157502,-0.682372,-3.459745,-9.078089
81.192158,0.019903,-3.825622,-8.986508
81.224111,1.188464,-3.618666,-8.450786
81.257316,-0.908782,-3.885329,-9.935693
81.291673,-1.710120,-3.760677,-9.904418
81.325019,-0.497114,-3.401534,-9.553954
81.356776,-0.638377,-3.416049,-9.103678
81.390987,-0.295246,-3.453161,-8.823696
81.424524,-0.354504,-3.807964,-8.883254
81.456788,-0.114776,-3.867971,-9.152612
81.490936,-0.302578,-4.336353,-8.891036
81.525048,-0.815105,-3.268501,-9.401767
81.556781,-0.077964,-3.267753,-9.078089
81.590549,-0.207405,-3.414253,-9.189723
81.623537,-0.036214,-3.753644,-8.939819
81.656768,0.173735,-3.806917,-9.091857
81.690091,0.121061,-3.799285,-8.916774
81.723256,0.131985,-3.737782,-9.068363
81.756820,-0.033520,-3.479348,-9.103229
81.792326,-0.594382,-3.223608,-9.260354
81.823419,-0.272350,-3.255632,-9.264245
81.856790,-0.177626,-3.439244,-9.048460
81.890791,-0.042648,-3.590234,-9.074348
81.923421,0.069584,-3.324318,-8.957477
81.956781,0.043696,-3.494761,-9.277114
81.990841,-0.490380,-3.614925,-8.903905
82.024393,-0.589144,-3.888771,-9.228032
82.056762,-1.236799,-3.995317,-8.837164
82.091139,1.041515,-4.554233,-9.090959
82.123626,-0.091282,-1.613151,-8.978278
82.157759,-1.132199,-3.794347,-9.322157
82.190542,0.179123,-3.348860,-9.183438
82.226042,0.101458,-3.465132,-8.758302
82.257800,-0.187802,-3.783123,-8.964959
82.290483,-0.087092,-3.522445,-8.960171
82.324608,0.287614,-3.266257,-9.397278
82.356882,0.269208,-3.098806,-9.270530
82.390120,-0.142610,-3.369211,-9.282352
82.424023,-0.346423,-3.359185,-9.110263
82.456838,-0.293450,-3.357988,-9.204837
82.491364,-0.563705,-3.289002,-9.276366
82.523227,-0.001646,-3.183504,-8.973489
82.556781,0.044145,-3.359185,-9.217257
82.590938,-0.445487,-3.883085,-9.147673
82.623919,-1.336461,-3.858543,-8.948798
82.657370,-0.118667,-3.650240,-8.933085
82.691300,1.300098,-3.579759,-9.115350
82.723741,0.238232,-3.696330,-8.984413
82.757452,-0.504147,-3.910021,-9.057289
82.791097,0.300633,-4.171147,-9.061180
82.824615,0.230899,-4.089442,-8.688868
82.857810,-0.723823,-4.273503,-8.716851
82.890259,-0.617277,-4.653147,-8.937126
82.924684,0.351362,-4.830923,-8.649213
82.956766,-0.288661,-4.844541,-8.754561
82.990135,-1.078626,-4.620226,-8.831029
83.024219,-1.130552,-4.183867,-8.732265
83.056833,-1.332122,-4.147803,-9.045018
83.091538,-0.686412,-4.180126,-8.966156
83.123458,-0.547394,-4.131193,-8.538028
83.156757,-0.697186,-4.409828,-8.799903
83.190112,-0.906986,-4.936721,-8.791373
83.223195,-0.947539,-5.093397,-8.239341
83.259233,-0.792060,-5.312624,-8.459615
83.290157,-0.635833,-5.801058,-8.383896
83.323474,-0.498910,-5.471096,-8.492387
83.358700,-0.777096,-5.698553,-8.380005
83.390359,-0.400445,-4.671105,-8.324787
83.424879,-0.192590,-4.348474,-9.107419
83.458402,0.921352,-3.640663,-8.670163
83.491447,1.148510,-4.194193,-7.924492
83.524189,1.203728,-5.178843,-8.974536
83.558047,0.746269,-6.118302,-8.567358
83.592721,1.353670,-6.510366,-8.347383
83.624416,1.115588,-5.726237,-7.856554
83.657519,-0.761982,-4.112188,-8.474879
83.692099,0.491128,-3.325814,-9.433791
83.724419,2.011052,-2.133609,-9.321558
83.757165,0.063000,-2.303903,-8.746481
83.791467,-1.832528,-3.196673,-9.168025
83.823657,-0.031126,-2.704796,-9.239255
83.856777,0.336996,-3.601158,-9.018232
83.891071,-0.530185,-3.674931,-9.315872
83.923970,0.140664,-3.918999,-9.473895
83.957814,-0.039506,-3.730299,-8.770723
83.990162,-0.480204,-4.037666,-8.924855
84.023399,1.941468,-3.950275,-8.397214
84.057717,-1.011437,-4.942108,-9.658554
84.090202,-2.210077,-4.886740,-8.319400
84.123858,1.645623,-3.294689,-9.464467
84.157762,-1.849736,-2.073752,-9.788594
84.190888,-2.275620,-3.492217,-9.737267
84.225537,-0.114028,-4.314057,-10.201609
84.256788,-0.251101,-4.197784,-9.372138
84.290091,0.895314,-4.113535,-8.631106
84.323523,2.021527,-4.051283,-9.238058
84.357031,-1.930993,-3.553421,-9.379620
84.391721,-1.133545,-2.508165,-9.895589
84.424453,3.889519,-2.198554,-8.915727
84.457807,1.561075,-3.154623,-8.385392
84.490963,-1.217196,-4.874320,-7.995423
84.526046,-1.175445,-5.095642,-8.744835
84.558401,1.099427,-3.142652,-9.352684
84.592507,1.047052,-3.620013,-8.826689
84.624886,1.045256,-2.921330,-8.902109
84.658045,1.432532,-2.036341,-10.410061
84.691740,0.656184,-2.917888,-9.428104
84.724402,-0.365877,-3.621060,-8.966905
84.758174,0.611142,-5.107014,-9.181343
84.792579,1.832378,-2.651972,-11.353859
84.825486,-0.510731,-1.302193,-9.139443
84.857369,-0.260828,-3.192183,-8.050641
84.891403,0.653790,-2.469857,-9.003268
84.924711,-0.599470,-3.051669,-9.671424
84.957230,0.648253,-2.862071,-9.301955
84.991513,0.802685,-3.124096,-8.544463
85.023859,0.543802,-2.790841,-9.416432
85.056862,1.241139,-2.634314,-8.859162
85.091338,1.214053,-3.398691,-8.219438
85.123871,2.695818,-3.114968,-9.552308
85.156845,2.432895,-3.637820,-10.661312
85.190984,1.065009,-3.205053,-9.271727
85.223914,1.509299,-3.453011,-9.127472
85.257985,0.525097,-4.710461,-9.283100
85.293269,2.436786,-4.410726,-9.975648
85.323414,2.159647,-2.850548,-9.550512
85.357615,-0.072577,-2.304950,-9.486016
85.390857,-0.319188,-2.761810,-9.520284
85.425721,0.294946,-3.200563,-8.681536
85.457403,1.002608,-3.948030,-9.660200
85.491022,0.381889,-4.141967,-9.312281
85.524569,1.142075,-3.761126,-10.198316
85.557139,0.386079,-3.750202,-9.230576
85.590167,1.015926,-4.897365,-8.924705
85.623635,1.196844,-4.166359,-9.629224
85.657205,-0.253196,-3.988583,-9.383960
85.691641,0.164607,-3.584996,-9.010750
85.723917,0.343879,-4.714950,-11.138074
85.757023,-0.179871,-3.582003,-7.610691
85.791094,-0.455962,-1.945508,-9.579094
85.824528,-0.785775,-1.440313,-9.049508
85.857321,-1.172004,-3.194129,-8.321345
85.891486,0.851319,-3.813052,-11.246715
85.924043,-1.173650,-3.460194,-7.809117
85.957077,-1.713561,-2.807900,-7.765870
85.992894,-2.085574,-2.622493,-9.896337
86.023660,0.016760,-3.742420,-8.362048
86.056786,0.627752,-3.054512,-9.006859
86.090700,-1.351126,-3.693786,-4.465645
86.123659,1.257001,-2.807302,-12.294216
86.157072,2.025717,-4.479861,-9.462522
86.191760,-1.485655,-5.877227,-9.161590
86.224520,-2.224742,-2.964127,-9.071804
86.258404,-3.428320,-5.102076,-9.318865
86.291283,-0.261576,-1.322245,-14.528385
86.324365,-2.942429,-7.146498,-0.001796
86.358797,-2.065971,-7.848623,-8.843300
86.394813,2.204540,-2.081084,-10.428318
86.423565,0.753901,-2.593761,-10.159709
86.457818,0.997221,-4.001602,-9.384857
86.490434,1.733314,-2.802663,-6.557803
86.523715,0.361537,-2.985975,-9.996897
86.557919,-2.623091,-3.481892,-10.839686
86.591432,0.970883,-7.308113,-8.527852
86.624745,2.475543,-6.801571,-9.380518
86.656843,-0.521506,-3.993671,-6.772391
86.690942,-0.337445,-0.354953,-11.171295
86.724656,0.930031,-0.745521,-9.666785
86.757038,-0.021399,-3.363824,-7.601113
86.790442,0.876309,-3.377890,-9.613961
86.822944,-0.646158,-3.549381,-10.006025
86.856776,-0.544401,-1.264633,-8.092691
86.890183,-1.303989,-3.974517,-6.553314
86.923131,0.653042,-2.181345,-12.514490
86.956785,1.949698,-3.454507,-9.552757
86.990180,1.746632,-3.337936,-11.428531
87.023203,1.944161,-4.676941,-8.393922
87.056144,1.925605,-4.387232,-9.364057
87.090289,3.148188,-3.683461,-9.059833
87.123420,2.072854,-2.879280,-7.204111
87.156781,0.532879,-2.449056,-7.518511
87.190117,1.307879,-3.027726,-12.486357
87.223248,-0.244517,-3.430714,-8.460064
87.256763,0.042199,-2.516097,-7.843385
87.290096,-0.542456,-4.133737,-9.645685
87.323079,-0.889627,-1.466202,-11.933576
87.356826,-1.414275,-3.783423,-11.810270
87.390335,-1.282440,-0.970734,-7.573280
87.424813,-1.552845,-3.579459,-10.056904
87.456869,0.657830,-1.107208,-10.571975
87.490187,2.014493,-2.353135,-11.561863
87.523433,-0.648104,-3.656675,-8.275554
87.557251,-0.343131,-3.539205,-10.258922
87.590489,0.342982,-4.653746,-8.335860
87.623851,-1.370729,-5.454485,-9.389945
87.657274,-1.709072,-4.763434,-9.792934
87.690440,-0.319188,-2.192120,-10.348857
87.724004,0.232246,-0.232545,-8.893430
87.757342,-1.580978,-1.938624,-11.323332
87.790833,-0.769464,-3.330004,-9.168324
87.825368,2.564282,-4.601072,-8.943411
87.858568,-0.314699,-6.652676,-8.731516
87.889551,-1.617940,-5.559535,-7.814654
87.924042,2.091559,-3.921543,-8.402302
87.958125,1.211809,-5.300204,-10.963441
87.990484,1.971995,-4.053378,-16.619795
88.024154,-0.660823,-2.090063,-9.959636
88.057208,1.049147,-3.510025,-6.222154
88.090675,0.784279,-3.985890,-7.612935
88.122557,1.398413,-2.683846,-12.906106
88.157241,-0.392663,-3.094167,-7.414359
88.190563,1.082966,-6.034801,-7.198724
88.224264,0.098016,-4.917866,-9.207979
88.257524,-0.744773,-3.936956,-6.287099
88.290847,-1.223930,-2.892299,-5.129461
88.323021,-1.287827,-3.014557,-8.397513
88.356741,-3.009170,-5.031295,-2.443819
88.390145,1.582325,-0.744025,-9.264993
88.422942,-1.986809,-3.870066,-11.775553
88.456791,-0.913421,-3.786415,-3.977061
88.490157,2.640599,-3.288254,-8.226920
88.522819,1.095835,-3.807216,-9.007159
88.556782,0.803283,-1.407242,-9.764053
88.590465,3.062892,-5.227178,-8.728972
88.626435,-0.531831,-5.254712,-8.447943
88.657204,-2.003569,-3.804373,-9.143633
88.690514,-0.632092,-4.032428,-8.054981
88.725419,1.276454,-3.564046,-9.617851
88.757454,-0.914767,-3.415301,-7.829768
88.790754,0.814955,-3.821432,-9.158448
88.823035,1.470092,-1.877271,-10.153124
88.856830,-0.838898,-2.939137,-9.139742
88.889223,0.510881,-3.678523,-14.285215
88.923508,1.062914,-3.923339,-13.397234
88.956752,0.868079,-5.538285,-2.921629
88.990117,0.396255,-6.737225,-6.963934
89.023093,2.047265,-5.211166,-8.654450
89.056690,2.787998,-4.757897,-9.688333
89.090202,1.134443,-2.777523,-11.912925
89.122462,2.468809,-3.659967,-10.699022
89.156931,1.087455,-3.459745,-9.428852
89.189389,-0.184809,-3.612381,-8.184272
89.223195,0.836504,-5.416775,-7.746716
89.256834,1.574992,-3.708003,-8.733761
89.289364,-0.834708,-4.266171,-8.803345
89.323165,-0.852516,-3.990528,-10.020840
89.356907,-0.560114,-3.816943,-7.992729
89.389233,0.490081,-3.741074,-9.038434
89.423333,-0.407328,-4.014322,-8.567957
89.457637,-0.016311,-2.977595,-9.879128
89.489962,0.158023,-3.929624,-9.113854
89.523303,0.038159,-3.393154,-10.567336
89.557289,0.605755,-3.105390,-9.306893
89.591145,0.806426,-2.572512,-8.954634
89.623482,-0.686562,-3.625549,-8.926651
89.656834,-2.595707,-3.248000,-7.459701
89.691169,-0.469280,-3.830261,-8.680039
89.723054,0.046389,-3.095963,-9.205585
89.756831,-0.251400,-2.813138,-9.616954
89.796560,0.681175,-3.403479,-10.055557
89.824380,1.561075,-3.957158,-9.364057
89.857390,0.865086,-3.806617,-10.399586
89.891082,1.674205,-3.804073,-9.402066
89.922809,1.398713,-3.963293,-7.236583
89.957610,0.209201,-3.989032,-5.829491
89.991702,0.147847,-4.358052,-8.022658
90.023468,2.958591,-2.307345,-9.954099
90.057690,2.662298,-6.249688,-12.589162
90.092307,1.781799,-4.935673,-10.166891
90.122935,2.245542,-3.620162,-8.689467
90.157942,2.699259,-2.805057,-9.903071
90.192737,1.472038,-1.952392,-9.759114
90.223018,1.469643,-3.997562,-6.858735
90.257695,2.180896,-2.700457,-7.799839
90.292283,2.919833,-4.108297,-6.599703
90.325289,0.278186,-4.283978,-11.068939
90.357878,-2.831843,-3.825622,-8.457670
90.392675,0.774702,-4.906942,-7.450124
90.422972,0.694194,-2.856983,-7.160116
90.457794,-0.390867,-2.027961,-10.116013
90.491585,-2.063876,-4.752510,-8.731816
90.522822,1.620184,-5.055537,-8.491639
90.557796,3.460643,-4.319144,-8.802597
90.591839,-0.082753,-2.906814,-9.918185
90.622975,0.548741,-2.150968,-8.666721
90.657998,0.302279,-0.623861,-10.306059
90.689659,1.530698,-1.863953,-8.914530
90.722566,-1.756958,-5.619392,-4.532386
90.756762,0.850122,-3.152229,-9.725295
90.793594,-1.945358,-4.228610,-6.910062
90.824117,0.127197,-3.544293,-9.462821
90.857500,-0.213391,-2.032301,-8.199685
90.891294,0.583607,-2.606032,-9.021824
90.922862,-0.598273,-2.992410,-8.486850
90.957674,0.329813,-4.335755,-8.868290
90.992205,0.662020,-3.858693,-8.065156
91.023205,1.851383,-1.376117,-10.365318
91.058568,-0.084249,-2.558745,-9.001771
91.091818,-0.521506,-2.961883,-7.909079
91.123652,1.639039,-3.744216,-11.359695
91.158707,0.221172,-3.478899,-10.600856
91.189293,1.100774,-2.596155,-9.884515
91.224490,0.828423,-5.056435,-7.546195
91.259114,2.980738,-5.065563,-13.339023
91.289199,2.696267,-6.017293,-2.631621
91.322989,2.853541,-5.657252,-5.231667
91.359181,0.881846,-4.443498,-1.495232
91.389181,2.243597,-5.552202,-5.697805
91.423167,5.583178,4.935374,-38.731635
91.458653,-0.991235,2.181495,0.895613
91.489431,-4.335007,0.141113,-9.057738
91.523185,4.624117,-8.048995,-9.639250
91.557701,-2.346551,-3.273589,-8.004401
91.591255,0.410321,-3.415451,-3.026828
91.623166,3.495360,0.601714,-10.649939
91.658533,0.984202,-13.451704,-7.230897
91.690281,2.984629,6.365063,-15.210607
91.724620,-2.209328,2.961135,-13.294878
91.758919,4.000106,-4.272755,-13.036145
91.790344,-0.728761,-4.133737,-11.510685
91.822816,-2.159946,-4.521611,-8.541320
91.858645,0.129142,-1.738252,-14.127042
91.892160,1.386442,-2.764953,-10.558058
91.923162,1.716854,-2.755974,-6.632026
91.957340,0.891423,-1.837166,-7.905038
91.997667,4.360895,-1.182927,-5.254562
92.022901,2.553956,-6.127879,-10.386567
92.057941,2.763756,-2.795031,-9.847553
92.091174,3.027277,0.377400,-7.670099
92.124571,1.575890,-3.596519,-13.101390
92.156848,-0.967741,-3.600559,-9.454591
92.189437,-0.632092,-3.849864,-4.339945
92.223168,-1.743640,-5.752125,-18.490481
92.256839,-2.082282,-1.356064,-9.922973
92.289345,-1.621681,-3.067980,-4.586856
92.323769,4.491533,2.366753,-10.892211
92.356524,-2.244195,0.455513,-9.914893
92.390275,-2.042776,-1.479370,-6.519494
92.423184,2.289836,0.400744,-11.341738
92.456497,0.909530,0.925242,-12.911193
92.490194,-0.439202,2.068514,-18.685167
92.523481,0.394459,-4.743083,-3.243212
92.556851,3.612979,-7.826625,-14.046235
92.590250,5.471096,-7.135874,-13.726149
92.622776,0.026487,-1.271666,-12.710822
92.656931,1.705481,0.496815,-5.023065
92.690367,5.792828,2.291931,-9.059683
92.723588,-0.545748,-2.481379,-6.994012
92.756988,-1.666573,-5.985269,-3.710397
92.790551,-0.628051,-4.247316,-5.649620
92.823023,0.728761,-1.266428,-10.362624
92.857186,0.932874,-3.679570,-13.741113
92.889800,2.881525,-3.079951,-14.440095
92.923152,0.116273,-1.169011,-11.413716
92.956941,0.694343,-2.164585,-8.219737
92.991461,1.532044,-4.266620,-10.662808
93.023141,-1.243234,-4.931633,-7.695389
93.056931,1.419513,3.192782,-9.909057
93.097170,1.219141,-4.199729,-6.905723
93.123091,2.009555,-3.179314,-10.879790
93.156755,1.736457,-3.699323,-8.686623
93.190091,2.230578,-4.483752,-9.836181
93.223449,0.163410,-5.068407,-9.378722
93.256757,1.474881,-5.530953,-9.767794
93.290116,0.125102,-3.932317,-9.921627
93.323187,-0.505045,-1.936380,-7.917159
93.356877,2.719910,-0.966843,-10.415448
93.389354,-1.473983,-3.353947,-8.109002
93.423160,1.290970,-2.644640,-14.023938
93.457084,-1.373872,-5.482768,-6.198959
93.489242,1.481764,-4.601221,-12.686879
93.522899,2.649877,-1.229317,-11.333807
93.556902,0.149344,-5.199943,-9.833936
93.589173,1.112895,-3.239919,-11.332460
93.623017,0.659177,-3.408417,-11.347125
93.656877,0.917760,-1.305036,-8.323290
93.689172,1.362649,-1.687524,-7.778440
93.723430,-1.844499,-2.936444,-6.170228
93.756757,0.181068,-2.962032,-9.281454
93.790099,0.667557,-2.659006,-11.031678
93.823498,-1.925456,-3.578861,-11.030331
93.856765,0.199474,-3.657274,-9.210074
93.890091,-0.064795,-4.223223,-5.901918
93.923455,-0.904143,-6.046922,-7.451022
93.956544,0.946641,-3.858543,-10.597414
93.990117,2.345952,-3.073367,-10.607141
94.023500,0.554427,-2.614711,-10.147887
94.060300,-0.227008,-4.312410,-5.740902
94.090110,0.590341,-4.632347,-4.833916
94.123519,0.724422,-6.680061,-6.141795
94.156262,2.212022,-2.078092,-9.010600
94.190094,2.094103,-1.709222,-9.439327
94.223463,1.157189,-1.417867,-9.593609
94.256786,1.449741,-1.709671,-10.045232
94.290184,-0.922698,-2.948714,-9.042474
94.322913,-0.789666,-4.452327,-7.056862
94.356780,0.901748,-5.549658,-10.591728
94.390186,-1.706379,-4.906343,-9.769440
94.422949,1.073987,-5.983922,-12.332524
94.456782,0.824832,-4.226964,-10.293340
94.490529,1.589657,-1.324939,-9.545724
94.522875,1.129655,-2.510111,-7.296740
94.556787,1.234704,-2.379472,-4.972485
94.590160,3.659518,-2.807152,-7.933022
94.622850,3.197421,-3.728803,-10.945633
94.656784,1.654452,-2.442622,-9.677260
94.690183,1.900166,-2.443520,-13.691731
94.722772,-1.643379,-4.307472,-8.246823
94.756828,1.356364,-3.984842,-12.387144
94.790277,0.503848,-4.543310,-8.487299
94.822807,-1.879815,-5.266085,-7.420644
94.856817,-1.739150,-5.301850,-3.742121
94.890459,-3.466479,-3.816494,-2.188229
94.922645,3.460643,-0.354055,-6.030012
94.956783,2.822116,-2.440676,-15.087002
94.990116,-2.508914,0.614733,-34.835681
95.023515,-0.883043,-5.656803,-7.476910
95.056763,0.204113,-8.700839,-7.644211
95.090195,1.906750,-5.933193,-7.425283
95.122406,-4.157680,-8.694255,-7.079757
95.156757,-1.264333,-8.080420,-0.231647
95.190230,-1.295160,-0.227008,-5.278655
95.227748,0.493522,20.047366,-13.013849
95.256778,7.936463,5.791332,-12.096687
95.290130,3.026379,-2.967270,-5.794325
95.323466,3.362477,-1.151802,-8.884751
95.356782,1.766685,-10.929921,0.855060
95.390182,0.446235,-3.828615,-7.322628
95.423023,1.952092,-2.513253,-10.863928
95.456783,2.650476,-1.879066,-13.919338
95.490182,-2.254521,-6.648486,-10.522593
95.523004,-0.658429,-3.280024,-4.993884
95.556065,-1.731967,-0.757642,-9.925068
95.590225,0.588695,-2.377228,-8.625719
95.622875,-0.820343,-5.089357,-7.764823
95.656861,1.307730,-2.921030,-14.182111
95.690181,0.259481,-2.015092,-9.060282
95.722842,1.746483,-1.297255,-9.118343
95.756944,4.469386,-1.305784,-8.602225
95.789410,0.972978,-3.249048,-4.317049
95.823495,3.052267,-3.868121,-10.962543
95.856933,0.449378,-6.414445,-6.917096
95.889342,3.012462,-4.809524,-11.926992
95.923195,1.126512,-6.276474,-6.879236
95.957281,-2.001624,-3.239919,-8.729571
95.989882,-0.499059,-1.689768,-16.782307
96.023003,-2.165034,0.453268,-12.529454
96.056857,-1.845397,-6.658812,-7.533625
96.090087,-0.310808,-5.337465,-10.504336
96.122882,-0.158173,-2.569220,-9.940332
96.156849,-2.706742,-4.025695,-1.623327
96.190930,0.642417,-3.984543,-8.582322
96.223160,-0.580465,-3.039996,-8.868140
96.256970,-0.455663,-2.401171,-10.861833
96.291737,0.959960,-7.243916,-4.041257
96.323449,1.239343,-4.790669,-8.731067
96.356784,3.169138,-4.659582,-16.389045
96.396436,-0.974924,-5.845802,-10.011113
96.423464,2.583885,-4.758047,-12.034136
96.456761,1.889541,-4.763883,-5.882165
96.490114,-1.165569,-6.247144,-5.785496
96.523259,2.036491,-5.473490,-13.869806
96.556588,0.867630,-3.421586,-4.099768
96.590117,2.202744,-2.463422,-10.386118
96.622819,4.411474,-4.521761,-0.621168
96.656784,-1.318654,-3.697079,-9.704644
96.690090,3.742570,-2.500683,-11.091685
96.723145,-1.304438,-5.266384,-9.161141
96.756987,3.855102,-0.023494,-7.760184
96.789169,-0.674890,-4.302384,-7.075867
96.823514,-3.424280,0.718735,-7.633885
96.856874,-1.842105,-2.390546,-5.493243
96.889451,-1.725832,-4.104706,-6.957050
96.923206,0.503848,-2.874940,-8.812623
96.956854,-1.356962,-3.107037,-7.992131
96.989312,0.701975,-2.893496,-8.039867
97.023322,3.236178,-1.540574,-9.478983
97.056924,0.581213,-3.558360,-10.182604
97.092585,1.681538,-3.927080,-8.362048
97.123479,2.289836,-3.955811,-7.770060
97.156783,-0.234490,-3.480994,-6.927271
97.189987,1.828637,-2.362413,-8.358008
97.223211,0.763778,-5.136045,-7.760034
97.256850,1.620483,-1.949249,-10.748853
97.291388,2.695369,-4.049039,-11.000552
97.322652,0.185108,-2.601094,-12.607568
97.356851,2.086172,-3.390909,-7.293448
97.392613,-0.217581,-2.050707,-8.161377
97.422919,3.226901,-2.357325,-10.259072
97.456036,0.831715,-2.587476,-10.318031
97.489247,0.438155,-5.056286,-5.193209
97.523044,1.474731,-2.926417,-7.726514
97.556764,0.363782,-5.224035,-8.334065
97.590267,-2.529864,-4.008635,-8.382998
97.623517,0.176579,-3.345567,-8.347383
97.656857,0.754500,-4.635789,-11.254496
97.690221,0.337445,-3.199965,-12.380859
97.724870,1.906900,-2.664991,-8.945506
97.756783,2.783808,-4.284128,-7.686560
97.790267,-0.227607,-3.770553,-10.528728
97.822933,1.954935,-1.281841,-11.268114
97.856783,0.512078,-3.604599,-9.415534
97.890178,2.790991,-4.498566,-12.515238
97.922850,-0.471226,-3.788211,-3.375646
97.956910,-1.752020,-1.005301,-15.282735
97.989298,-0.493822,-4.091537,-12.793574
98.022848,-1.721193,-3.512569,-6.480138
98.056841,1.412330,-3.122899,-12.651713
98.089427,0.414960,-3.996215,-10.992921
98.123516,2.119992,0.536919,-8.638139
98.156759,1.259994,-2.066868,-14.895309
98.190161,0.244068,-2.015391,-7.069731
98.223247,1.059622,-0.801637,-7.275640
98.256203,0.589444,-2.249582,-9.599296
98.290146,1.036277,-4.061010,-7.029777
98.322846,1.944012,-3.644554,-10.504636
98.356791,0.380542,-3.606245,-7.430371
98.390186,2.560540,-3.471567,-10.682860
98.422718,1.064410,-2.801466,-11.185511
98.456789,3.314142,-1.693509,-13.598952
98.489250,0.376202,-5.922569,-9.553056
98.528584,0.955021,-2.900380,-11.964403
98.556769,2.314527,-2.428855,-7.923744
98.590122,-0.973128,-3.932617,-6.666893
98.623447,2.268737,-2.084676,-9.427506
98.656867,-2.231925,-2.967270,-10.511519
98.690114,-2.422869,-0.577472,-16.387399
98.723448,1.537581,-0.981059,-11.049785
98.756847,-1.771623,-4.572640,-10.620609
98.789180,2.032899,-0.776797,-7.339238
98.823119,-1.276305,-2.202894,-7.778291
98.856783,-2.657359,-2.535550,-9.264544
98.890104,1.298153,-3.020543,-6.634719
