time_tick,gyr_X_value,gyr_Y_value,gyr_Z_value
-0.018848,0.097033,-0.029042,0.081021
0.011151,0.099089,-0.034368,0.062827
0.051149,0.103347,-0.037578,0.066014
0.071148,0.102362,-0.036522,0.091663
0.121144,0.105616,-0.038673,0.114088
0.161143,0.100189,-0.035443,0.075642
0.191141,0.096903,-0.032221,0.041470
0.221139,0.098992,-0.036486,0.032898
0.251119,0.098931,-0.037542,0.013660
0.281135,0.098892,-0.039669,0.002964
0.311124,0.102087,-0.049276,0.014663
0.341122,0.106400,-0.056762,0.041333
0.381106,0.112860,-0.067455,0.077600
0.431119,0.117281,-0.076025,0.141660
0.461116,0.117379,-0.078175,0.176907
0.491116,0.119629,-0.080333,0.219634
0.521121,0.121876,-0.081424,0.260229
0.551120,0.121935,-0.077167,0.275211
0.591118,0.117648,-0.069686,0.257089
0.621116,0.115461,-0.063272,0.230413
0.651114,0.111126,-0.055783,0.196264
0.681112,0.107878,-0.048300,0.169595
0.731110,0.105732,-0.037625,0.151490
0.761099,0.102520,-0.034415,0.141892
0.781106,0.100357,-0.030138,0.125889
0.821104,0.095996,-0.023711,0.084255
0.861090,0.095941,-0.019435,0.060773
0.891095,0.093768,-0.016223,0.042627
0.921083,0.090553,-0.013012,0.031961
0.951080,0.094805,-0.015154,0.031948
0.991094,0.089488,-0.015143,0.034086
1.031093,0.092697,-0.017286,0.041553
1.051090,0.090570,-0.018349,0.043685
1.081086,0.092715,-0.019423,0.050089
1.121088,0.093808,-0.019430,0.059705
1.151086,0.093830,-0.020500,0.068247
1.181083,0.102368,-0.018389,0.072530
1.211063,0.087469,-0.016224,0.072546
1.251077,0.097029,-0.018375,0.067189
1.291065,0.096986,-0.020501,0.055424
1.321051,0.094831,-0.019425,0.045815
1.361050,0.092671,-0.017282,0.033005
1.391050,0.090521,-0.020474,0.029783
1.421048,0.095852,-0.024754,0.037237
1.451068,0.095812,-0.027947,0.027604
1.491065,0.098936,-0.033276,0.010478
1.521064,0.099964,-0.037539,0.002975
1.551062,0.100992,-0.039669,-0.006653
1.591059,0.101005,-0.040738,-0.001316
1.621058,0.102072,-0.041807,0.000814
1.651055,0.099989,-0.037543,0.011523
1.681053,0.096847,-0.030078,0.020112
1.711052,0.093715,-0.020481,0.029782
1.751025,0.088485,-0.006618,0.044818
1.781050,0.085349,0.001913,0.054482
1.811047,0.083257,0.007245,0.060922
1.851015,0.080098,0.013647,0.065232
1.881014,0.081162,0.011511,0.067357
1.931028,0.082212,0.007244,0.067334
1.961028,0.086446,0.002972,0.064104
1.991011,0.089591,-0.005560,0.057645
2.021024,0.077796,0.000880,0.022424
2.051010,0.081705,-0.009738,-0.082345
2.091031,0.085874,-0.017199,-0.103756
2.121030,0.097626,-0.038566,-0.065411
2.151004,0.105245,-0.052478,0.006097
2.181026,0.112932,-0.069600,0.104300
2.231028,0.118592,-0.068602,0.215424
2.261014,0.100398,-0.032278,0.141904
2.291013,0.084282,0.004049,0.051288
2.321011,0.083060,0.015811,-0.014891
2.351010,0.063957,0.031844,-0.012662
2.391014,0.075868,0.018985,0.068468
2.421012,0.073779,0.029650,0.069596
2.451010,0.073816,0.027510,0.084542
2.481007,0.077100,0.027488,0.114458
2.521003,0.077157,0.026412,0.134753
2.551001,0.079231,0.025350,0.117652
2.581000,0.079129,0.020033,0.089842
2.611000,0.080091,0.011514,0.065221
2.650999,0.084201,0.001929,0.026702
2.690996,0.088284,-0.010851,-0.017176
2.720995,0.089243,-0.018303,-0.043929
2.750993,0.090233,-0.021493,-0.065316
2.790990,0.094475,-0.028966,-0.062153
2.820989,0.095586,-0.038576,-0.035494
2.850987,0.098855,-0.042863,-0.005601
2.890983,0.104262,-0.049289,0.029621
2.920983,0.106450,-0.047170,0.046728
2.950981,0.105412,-0.043972,0.052088
2.980979,0.103318,-0.036506,0.055335
3.020972,0.092608,-0.027938,0.024399
3.050967,0.093695,-0.022611,0.025497
3.090973,0.099097,-0.025836,0.055395
3.120972,0.094855,-0.029030,0.064994
3.160969,0.104431,-0.043983,0.079868
3.190968,0.108671,-0.054657,0.086219
3.220941,0.111803,-0.064254,0.076550
3.250964,0.109630,-0.063175,0.060529
3.280961,0.107438,-0.058893,0.034910
3.310941,0.104223,-0.050349,0.017862
3.340939,0.102082,-0.040742,0.002957
3.380955,0.096772,-0.032199,-0.002337
3.430936,0.093637,-0.023668,0.007327
3.460934,0.090534,-0.019409,0.032994
3.490933,0.090602,-0.017287,0.053307
3.520933,0.092784,-0.015168,0.068276
3.550932,0.090674,-0.014099,0.073625
3.590942,0.089584,-0.014093,0.065078
3.620926,0.089568,-0.014090,0.059735
3.650940,0.094831,-0.020492,0.046877
3.680939,0.096914,-0.030089,0.042550
3.720936,0.102213,-0.041831,0.047827
3.750934,0.105369,-0.048231,0.042448
3.780932,0.105348,-0.051428,0.039225
3.820900,0.106371,-0.050357,0.024273
3.850929,0.102089,-0.046077,0.011476
3.890917,0.101021,-0.039674,0.002963
3.920920,0.097830,-0.034333,-0.002349
3.950895,0.093558,-0.026855,-0.015128
3.980898,0.090397,-0.018320,-0.014012
4.030918,0.089365,-0.011923,-0.010771
4.060935,0.088302,-0.014054,-0.007577
4.090934,0.091532,-0.013000,0.003112
4.120932,0.094755,-0.019413,0.020172
4.150931,0.096925,-0.026891,0.042568
4.180928,0.102268,-0.034373,0.057484
4.220926,0.102242,-0.040769,0.056380
4.250925,0.104307,-0.047163,0.042455
4.280923,0.104258,-0.049288,0.028553
4.320907,0.103142,-0.050344,0.012520
4.350902,0.102049,-0.049270,0.001842
4.390917,0.102012,-0.047130,-0.013105
4.410914,0.099848,-0.046053,-0.025920
4.450909,0.101926,-0.047116,-0.041953
4.490911,0.101923,-0.046049,-0.044084
4.520909,0.100858,-0.047113,-0.043022
4.550907,0.102968,-0.052448,-0.043051
4.590902,0.106177,-0.056725,-0.033459
4.620885,0.105111,-0.057789,-0.032397
4.650900,0.107232,-0.063125,-0.029221
4.680898,0.109365,-0.068464,-0.021772
4.710897,0.110459,-0.067405,-0.013218
4.750896,0.110467,-0.070606,-0.006825
4.780894,0.108384,-0.066343,0.003883
4.810893,0.108413,-0.066347,0.013500
4.850881,0.106343,-0.063152,0.029545
4.880880,0.106397,-0.063161,0.047708
4.930886,0.106455,-0.063171,0.066941
4.960885,0.106451,-0.063170,0.065872
4.990881,0.104302,-0.058896,0.054143
5.020880,0.107478,-0.056766,0.045606
5.060878,0.105404,-0.053571,0.060583
5.080877,0.105395,-0.052503,0.056315
5.120875,0.105401,-0.053570,0.059514
5.150872,0.104344,-0.050369,0.058464
5.190870,0.104309,-0.050363,0.046711
5.230849,0.100036,-0.047151,0.038182
5.250850,0.103218,-0.045023,0.031782
5.290865,0.099955,-0.042871,0.006151
5.320847,0.098882,-0.040734,0.000821
5.350838,0.097804,-0.041796,-0.002390
5.380845,0.098841,-0.046060,-0.006687
5.420828,0.102021,-0.053532,-0.002455
5.450854,0.102087,-0.055677,0.022107
5.490841,0.107478,-0.062100,0.051988
5.520851,0.107560,-0.064247,0.081893
5.550849,0.109737,-0.065326,0.098982
5.590836,0.110810,-0.067463,0.104312
5.610835,0.109755,-0.068529,0.108581
5.650834,0.111847,-0.066394,0.093633
5.690841,0.108543,-0.062102,0.051988
5.720839,0.107387,-0.058885,0.017815
5.750838,0.103006,-0.053521,-0.029167
5.790828,0.132738,-0.048242,-0.062268
5.830821,0.070001,-0.032113,-0.053616
5.850821,0.005028,-0.028763,-0.065336
5.880830,0.082700,-0.027863,-0.084581
5.910828,0.077398,-0.022521,-0.083482
5.950826,0.087975,-0.016133,-0.114435
5.980824,0.079502,-0.002254,-0.115425
6.020801,0.094722,-0.007674,-0.004339
6.050804,0.101377,-0.010933,0.088598
6.070820,0.081225,-0.021567,0.127009
6.120816,0.055032,-0.029044,0.277628
6.170790,0.057410,-0.022691,0.353523
6.190812,0.075481,-0.010993,0.330077
6.220811,0.059320,0.004008,0.248960
6.260793,0.033326,0.018006,0.085568
6.290801,0.051293,0.032921,0.023675
6.320805,0.087261,-0.037523,0.027553
6.350777,0.102352,0.000814,0.044856
6.390800,0.130950,0.059441,-0.073428
6.420798,0.050951,0.116180,-0.187423
6.460797,-0.047314,0.264721,-0.463315
6.490795,-0.059045,0.347952,-0.566496
6.520794,-0.094226,0.372572,-0.610160
6.550792,-0.002596,0.339288,-0.550530
6.590780,0.014816,0.254919,-0.326621
6.620770,0.047238,0.158766,-0.054699
6.650784,0.077282,0.072258,0.123252
6.690761,0.104294,0.016665,0.319538
6.730759,0.081588,0.039174,0.177561
6.750758,0.068444,0.064864,0.024915
6.790758,0.063863,0.092661,-0.114900
6.810776,0.059449,0.102297,-0.177885
6.850775,0.065341,0.099165,-0.340310
6.890771,0.077364,0.050019,-0.179245
6.920770,0.077450,-0.015063,-0.074894
6.950769,0.093438,-0.095103,0.024030
6.990766,0.131724,-0.223184,0.157943
7.020763,0.117589,-0.227371,0.064967
7.050763,0.119588,-0.208153,-0.001173
7.080761,0.093816,-0.158992,-0.131249
7.120759,0.046253,-0.041432,-0.506691
7.150757,0.058838,0.030039,-0.653749
7.190725,0.032158,0.110111,-0.767628
7.220724,0.055474,0.111143,-0.805024
7.250749,0.065559,0.106771,-0.631959
7.280721,0.068311,0.111996,-0.429992
7.330747,0.070979,0.088434,-0.222840
7.360745,0.096780,0.104335,-0.158651
7.390743,0.080765,0.131046,-0.204444
7.420741,0.100927,0.150212,-0.249219
7.450731,0.089362,0.213148,-0.273445
7.490737,0.089442,0.264336,-0.306286
7.520735,0.123575,0.304783,-0.332783
7.550734,0.106490,0.289896,-0.331793
7.580732,0.111003,0.273844,-0.228241
7.620724,0.120380,0.195813,0.149564
7.650721,0.144143,0.098636,0.375539
7.690712,0.124303,0.067682,0.542054
7.720719,0.144702,0.060142,0.607184
7.750718,0.150332,0.104880,0.657646
7.790719,0.136588,0.165695,0.619519
7.820718,0.132562,0.190200,0.668804
7.850717,0.106324,0.113395,0.885286
7.890714,0.137508,-0.079795,1.212235
7.920713,0.139730,-0.060615,1.220888
7.950708,0.155151,-0.028559,0.999888
7.980708,0.164880,-0.042472,1.064986
8.010707,0.157234,-0.075665,1.394961
8.050699,0.168248,-0.103484,1.549732
8.080674,0.194016,-0.121711,1.642582
8.120687,0.218499,-0.197500,1.728706
8.150686,0.272612,-0.255192,1.732649
8.180685,0.273868,-0.274426,1.819089
8.230676,0.281950,-0.276506,1.675901
8.260674,0.350893,-0.276618,1.587202
8.290665,0.305819,-0.257258,1.446282
8.320665,0.340085,-0.259325,1.157777
8.350671,0.317163,-0.259181,0.969734
8.390685,0.356956,-0.276228,0.766622
8.420683,0.375379,-0.278281,0.520860
8.450681,0.327169,-0.271723,0.414061
8.490660,0.395136,-0.302781,0.391436
8.530678,0.355016,-0.308080,0.511085
8.560675,0.400698,-0.325233,0.497090
8.590653,0.366006,-0.333586,0.299386
8.620652,0.334303,-0.270620,0.306151
8.650651,0.351409,-0.314404,0.380698
8.680649,0.338771,-0.280265,0.387300
8.710649,0.339026,-0.334533,0.179719
8.740647,0.255136,-0.283180,0.194980
8.780663,0.313032,-0.248176,0.288115
8.820660,0.307728,-0.247100,0.293465
8.850658,0.263811,-0.229891,0.185655
8.880653,0.166473,-0.267999,0.080759
8.910655,0.250584,-0.242588,0.049893
8.950653,0.315731,-0.320460,-0.149285
8.990637,0.210739,-0.214690,-0.132651
9.010665,0.191249,-0.238060,-0.213978
9.050635,0.216575,-0.157011,-0.384493
9.080634,0.176479,-0.151473,-0.624857
9.120659,0.190554,-0.190835,-0.856934
9.160657,0.071206,-0.143616,-0.944260
9.190655,-0.038971,-0.099725,-0.809366
9.220654,-0.156545,-0.092986,-0.968502
9.250652,-0.029936,0.018747,-1.130325
9.280650,-0.050174,-0.061208,-1.039940
9.310648,0.012686,-0.049798,-0.684094
9.350622,0.034411,0.018351,-0.619616
9.380644,-0.005999,0.112302,-0.712047
9.420641,0.071980,0.005591,-0.859031
9.460622,0.095621,0.073770,-0.866141
9.490639,0.104575,0.058744,-0.702751
9.520631,0.097115,0.147122,-0.452243
9.550631,0.073220,0.167170,0.078899
9.580629,0.060421,0.103201,0.145864
9.610628,0.144878,0.079488,0.287819
9.640626,0.152201,-0.026284,0.723169
9.680628,0.110855,-0.147997,1.280248
9.730624,0.164549,-0.156377,0.730999
9.760623,0.149268,-0.079655,0.872462
9.790621,0.169394,-0.179951,0.954177
9.820619,0.148187,-0.222410,0.677217
9.850617,0.097021,-0.014282,0.415531
9.880616,0.129693,-0.075993,0.019852
9.910614,0.106117,-0.027023,0.268011
9.950606,0.149761,-0.143388,0.399850
9.990609,0.118083,-0.165585,0.158263
10.030607,0.142582,-0.126175,0.115735
10.060606,0.130820,-0.111206,0.081629
10.090578,0.163624,-0.141114,0.048335
10.120602,0.076087,-0.138746,-0.030698
10.160585,0.037385,-0.105706,0.162885
10.180598,0.172659,-0.226379,-0.035476
10.220584,0.092467,-0.190051,0.165614
10.250586,0.152316,-0.168889,0.215934
10.290592,0.134685,-0.159151,0.005504
10.330591,0.147834,-0.091866,-0.303984
10.360588,0.067762,-0.046849,-0.428728
10.390586,0.038660,-0.077659,-0.511162
10.420567,-0.046166,-0.037884,-0.795134
10.450583,-0.055575,-0.055850,-1.071963
10.480582,-0.004180,0.032697,-1.434766
10.520578,-0.053853,0.040565,-2.031983
10.570556,-0.010607,0.121428,-1.906538
10.590557,0.018043,0.162805,-1.631722
10.620573,0.099817,0.172081,-1.357095
10.650554,0.088071,0.148471,-0.985397
10.690553,0.131978,0.125755,-0.518614
10.720552,0.105053,0.112891,-0.250493
10.750551,0.095918,0.126704,-0.116857
10.790563,0.140033,0.044395,0.132700
10.820562,0.148990,0.021902,0.305666
10.850560,0.149517,0.032656,0.113401
10.880558,0.109150,0.045532,0.129508
10.920543,0.089159,-0.012955,-0.078090
10.950553,0.049715,0.092744,-0.217469
10.980552,0.050444,0.079105,-0.669504
11.010550,0.081822,0.146328,-0.936258
11.050549,0.127916,0.147240,-0.833691
11.090527,0.096633,0.148444,-0.970441
11.110517,-0.046307,0.114676,-1.019742
11.150520,0.083593,0.227627,-1.506371
11.180518,0.091161,0.318084,-1.217391
11.230539,0.186675,0.118100,-0.377631
11.260536,0.244918,0.059003,0.296231
11.290535,0.200673,0.145426,0.354413
11.320533,0.235740,0.261627,0.195842
11.350532,0.302042,0.258056,0.652041
11.380525,0.227759,0.085204,1.292187
11.420520,0.195771,0.030883,1.339977
11.450526,0.181179,0.043839,1.074004
11.480524,0.148393,0.032318,0.805764
11.520521,0.159138,0.053787,0.457560
11.560518,0.116089,0.098760,0.251604
11.590517,0.100574,0.097653,0.405461
11.620515,0.182705,0.006776,0.559869
11.650514,0.141917,0.029147,0.780105
11.690511,0.167560,-0.009326,0.854680
11.720510,0.168423,-0.080763,0.870314
11.750509,0.149374,-0.123406,0.958767
11.780493,0.128127,-0.162834,1.020526
11.830502,0.116124,-0.143558,0.900967
11.860475,0.106385,-0.136044,0.840108
11.890501,0.140318,-0.196899,0.864340
11.920499,0.148096,-0.243904,1.027555
11.950497,0.159786,-0.235393,1.010503
11.980495,0.196040,-0.234242,0.670730
12.020493,0.142258,-0.174296,0.418914
12.050473,0.171268,-0.219031,0.202832
12.090489,0.120706,-0.215631,0.025498
12.130487,0.102003,-0.122689,-0.283842
12.160485,0.032618,-0.080903,-0.391510
12.180480,0.045716,-0.090585,-0.272967
12.220481,0.057431,-0.091853,0.084959
12.260469,0.099446,-0.081362,0.236728
12.280479,0.103750,-0.094179,0.266574
12.320471,0.100130,-0.128235,0.163815
12.350470,0.064553,-0.133416,0.022758
12.370474,0.075626,-0.100269,-0.229220
12.420470,0.066646,-0.079730,-0.763337
12.460468,0.076273,-0.042250,-1.147781
12.490467,-0.038128,0.030620,-1.390963
12.520447,-0.031013,0.141595,-1.632896
12.550447,-0.000194,0.208736,-1.730833
12.580442,0.041049,0.217048,-1.478639
12.620459,0.111505,0.150550,-0.984323
12.650439,0.093557,0.104522,-0.524063
12.700441,0.158873,0.105032,0.309326
12.720440,0.218196,0.096239,0.574242
12.750438,0.134962,0.033348,0.941468
12.780449,0.171054,-0.017025,1.319419
12.810447,0.187823,-0.044928,1.618431
12.850446,0.223469,-0.132385,1.534602
12.890443,0.102814,-0.091173,0.661922
12.920435,0.078369,-0.023749,0.242392
12.950440,0.037928,-0.101529,0.339204
12.990438,0.139439,-0.202977,0.222160
13.020436,0.112207,-0.170990,0.335600
13.060433,0.175684,-0.319510,0.727963
13.090433,0.155106,-0.184112,0.809915
13.120430,0.118767,-0.132807,0.704428
13.150429,0.122316,-0.108340,0.794313
13.180428,0.159373,-0.206524,0.838640
13.220405,0.195612,-0.257812,0.911005
13.250403,0.227808,-0.287619,0.674703
13.280422,0.128747,-0.274414,0.290152
13.330415,0.047390,-0.208916,-0.287508
13.360417,0.090026,-0.161910,-0.682591
13.390415,0.102099,-0.188489,-0.886817
13.420414,0.081216,-0.204335,-1.086702
13.450412,-0.016733,-0.178515,-1.114317
13.490409,0.051607,-0.078433,-1.165069
13.520408,0.069240,-0.041062,-1.364671
13.550406,0.051003,0.025136,-1.487176
13.580404,0.013289,-0.067507,-1.529346
13.620382,0.011054,0.048784,-1.699661
13.650376,-0.016768,0.057403,-1.756235
13.680370,0.020402,0.084002,-1.819137
13.710369,0.041082,0.140416,-1.734423
13.750368,0.083197,0.171158,-1.572926
13.790392,0.154315,0.129258,-1.241950
13.820391,0.153888,0.113154,-1.010181
13.860387,0.168515,0.163126,-0.805834
13.890386,0.170628,0.150324,-0.796288
13.920384,0.171810,0.179103,-0.790788
13.950370,0.244039,0.180035,-0.849566
13.990358,0.168036,0.178140,-0.983116
14.020391,0.175573,0.134375,-0.904292
14.050389,0.186993,0.068088,-0.569161
14.080387,0.236864,0.148897,-0.364653
14.120379,0.239469,0.191480,-0.255436
14.150377,0.260358,0.161457,-0.000243
14.180373,0.216031,0.145492,0.149265
14.230359,0.183523,0.130900,-0.378629
14.260358,0.191485,0.151241,-0.587938
14.290372,0.211299,0.137398,-0.710892
14.320349,0.125351,0.082250,-0.903498
14.350353,0.176585,0.174915,-0.969246
14.380353,0.160809,0.149318,-0.874289
14.420368,0.269042,0.204428,-0.706263
14.450365,0.247297,0.219309,-0.518127
14.480359,0.319499,0.241405,-0.255180
14.530339,0.273541,0.218962,0.068452
14.560342,0.273508,0.217901,0.058830
14.590339,0.202954,0.203172,-0.018164
14.620344,0.231708,0.203107,-0.016034
14.650331,0.220072,0.158319,0.061720
14.690353,0.198296,0.133914,-0.070898
14.720351,0.186892,0.115930,-0.302851
14.750349,0.164447,0.169329,-0.393372
14.780347,0.184821,0.195927,-0.376135
14.820327,0.184577,0.128766,-0.379709
14.860334,0.178119,0.182126,-0.464892
14.890316,0.152876,0.215199,-0.399527
14.920331,0.122336,0.204546,-0.274568
14.950311,0.217387,0.190417,-0.161412
14.990336,0.112672,0.190539,0.070471
15.010327,0.198796,0.176498,0.046867
15.050332,0.184205,0.230880,0.088839
15.080331,0.116764,0.202291,0.001084
15.130328,0.123525,0.223723,-0.255231
15.160326,0.174864,0.213969,-0.166614
15.190324,0.115152,0.130916,-0.098675
15.220299,0.140951,0.141485,-0.029173
15.250322,0.153182,0.208573,0.066286
15.280320,0.152283,0.212815,0.116528
15.320299,0.181799,0.209422,0.377207
15.340316,0.153297,0.158245,0.519038
15.380297,0.131408,0.075015,0.772881
15.430311,0.153631,0.039787,0.768408
15.460310,0.090101,0.035780,0.535476
15.480308,0.088574,0.044393,0.370980
15.520306,0.098093,0.114959,-0.088074
15.560289,0.077619,0.106511,-0.159703
15.580303,0.115139,0.128785,-0.100824
15.620287,0.091725,0.104303,-0.068899
15.640299,0.107863,0.069038,0.028134
15.670298,0.106452,0.048656,0.291933
15.730294,0.145502,-0.033685,0.628037
15.760292,0.137967,-0.006987,0.569420
15.790272,0.132484,0.014385,0.491541
15.820290,0.116534,0.004817,0.509656
15.850263,0.136118,0.011105,0.642175
15.880261,0.192469,-0.059410,0.697335
15.920282,0.145240,-0.129818,1.007882
15.950281,0.165448,-0.179994,1.058887
15.990277,0.159779,-0.160724,0.921163
16.020279,0.145312,-0.178722,0.733018
16.050276,0.121576,-0.212751,0.668729
16.080274,0.121084,-0.238270,0.533962
16.110272,0.130165,-0.188074,0.307721
16.150271,0.115601,-0.207122,0.088585
16.190268,0.097621,-0.214568,0.137698
16.220267,0.158894,-0.212494,-0.025780
16.250264,0.116221,-0.195317,-0.073757
16.290263,0.101312,-0.194216,-0.075884
16.310242,0.150236,-0.224185,-0.058965
16.360259,0.140153,-0.190121,0.089741
16.390257,0.118662,-0.235908,0.077741
16.420256,0.037767,-0.245330,0.096941
16.450253,0.111264,-0.248700,0.110795
16.490233,0.076903,-0.251776,0.017830
16.520249,0.081812,-0.199451,-0.181686
16.550248,0.055987,-0.172681,-0.303338
16.580246,0.048472,-0.188654,-0.305561
16.630244,0.021647,-0.154426,-0.414350
16.660242,0.042350,-0.167175,-0.597132
16.690241,0.037172,-0.106387,-0.619234
16.720239,0.053879,-0.117037,-0.716527
16.750220,0.005007,-0.028410,-0.784410
16.790235,0.002847,-0.005999,-0.820614
16.810235,0.055383,0.038623,-0.750931
16.850231,0.058730,0.049258,-0.712409
16.890220,0.109724,0.138588,-0.498237
16.920219,0.122518,0.089489,-0.435471
16.960217,0.108153,0.149166,-0.324019
16.980216,0.169610,0.129877,-0.401069
17.010204,0.098820,0.188614,-0.286404
17.050214,0.180987,0.194799,-0.232966
17.090218,0.050604,0.139354,0.381127
17.120217,0.112535,0.114827,0.112793
17.160213,0.114352,0.226701,0.234144
17.190212,0.109266,0.144539,0.408922
17.220206,0.141484,0.140154,0.506120
17.250209,0.126431,0.166880,0.426136
17.290190,0.147493,0.130603,0.390672
17.320191,0.036481,-0.072663,0.178025
17.350202,-0.003109,0.185246,0.524566
17.380200,0.093454,0.032722,0.236288
17.420183,0.101030,0.120153,0.175865
17.450182,0.213968,0.107085,0.216367
17.500176,0.099853,0.107198,0.509154
17.530190,0.090465,0.087987,0.596665
17.560163,0.160411,0.040949,0.541898
17.590161,0.113194,-0.043152,0.516872
17.620172,0.078391,-0.011128,0.590781
17.650168,0.142917,-0.044271,0.488011
17.680180,0.177828,-0.073113,0.446174
17.720183,0.173389,-0.106141,0.424624
17.750151,0.158294,-0.095409,0.348826
17.780156,0.171866,-0.155129,0.328193
17.830160,0.138725,-0.116632,0.238662
17.850151,0.101074,-0.145284,0.143420
17.890152,0.030069,-0.185538,-0.054450
17.920170,0.064094,-0.246408,0.000767
17.950153,0.030943,-0.215376,-0.083463
17.980168,0.134607,-0.231498,-0.291927
18.020166,0.099576,-0.168502,-0.330037
18.050165,0.062364,-0.099092,-0.392686
18.080163,0.020545,-0.119217,-0.467579
18.120140,0.096346,-0.081020,-0.443881
18.160138,0.036624,-0.056511,-0.148836
18.190137,0.086312,-0.074698,-0.246178
18.220136,0.011018,0.005423,-0.238240
18.250148,0.063730,0.004324,-0.412418
18.290152,0.115386,0.053360,-0.641881
18.320150,0.058851,0.073771,-0.700521
18.350149,0.074927,0.105718,-0.702486
18.390146,0.051194,0.172848,-0.527952
18.420144,0.206555,0.210914,-0.602572
18.450143,0.114755,0.269652,-0.392808
18.480141,0.128132,0.312190,-0.241924
18.510139,0.167730,0.284334,-0.141651
18.550137,0.192106,0.327857,0.125698
18.580135,0.153240,0.351324,0.275421
18.620126,0.171334,0.294575,0.695012
18.650103,0.158127,0.251833,0.956553
18.680101,0.138956,0.195343,1.020355
18.730128,0.186276,0.109824,1.277374
18.760126,0.159505,0.067242,1.276078
18.780124,0.218574,-0.028801,1.201812
18.820123,0.112103,-0.056295,1.234808
18.850120,0.225037,-0.118254,0.974804
18.880119,0.146530,-0.081857,1.027378
18.910118,0.193167,-0.186287,0.722280
18.950111,0.204794,-0.207633,0.718955
19.000081,0.190496,-0.226726,0.588501
19.020082,0.193617,-0.181920,0.511817
19.060107,0.246620,-0.334537,0.611401
19.080106,0.239531,-0.354848,0.756602
19.120104,0.228436,-0.458043,0.371390
19.150102,0.214102,-0.332061,0.060095
19.180101,0.073571,-0.347747,0.083548
19.210098,0.158428,-0.360510,-0.365297
19.240092,0.103280,-0.263354,-0.405351
19.280095,0.126900,-0.300598,-0.652377
19.330089,0.185523,-0.149271,-0.807555
19.360086,0.069539,-0.138355,-0.795714
19.390086,0.118974,-0.068140,-0.724821
19.420085,0.073461,-0.051015,-0.654198
19.450084,0.027686,0.063047,-0.428114
19.480082,-0.072441,0.023812,-0.396252
19.510082,0.180983,-0.045030,-0.311214
19.550078,0.102313,0.075488,-0.055170
19.590078,0.109994,0.097834,-0.004831
19.620076,0.037251,0.100012,0.234534
19.650057,0.155758,0.091159,0.351989
19.680072,0.143378,0.092188,0.483418
19.710071,0.083922,0.019760,0.624072
19.750070,0.087632,0.003666,0.815237
19.790054,0.135192,-0.089184,0.805099
19.820048,0.112936,-0.093418,0.844615
19.850052,0.167730,-0.169182,0.741613
19.890062,0.088893,-0.160463,0.716036
19.920059,0.162097,-0.220144,0.341728
19.960057,0.074512,-0.218835,0.247732
19.990057,0.096221,-0.228377,0.041460
20.020030,0.149841,-0.266786,-0.141471
20.050053,0.115187,-0.212212,-0.399731
20.090045,0.110437,-0.138519,-0.649345
20.120049,0.120942,-0.123586,-0.714442
20.150048,0.064751,-0.085098,-0.678958
20.180046,0.136491,-0.013858,-0.627297
20.220023,-0.085144,-0.022039,-0.318503
20.250020,0.029971,0.021415,-0.327908
20.290017,0.026511,0.066092,-0.112900
20.310032,0.035376,0.070282,-0.001759
20.350017,0.089380,0.031809,-0.056475
20.390034,0.015372,0.050023,0.097502
20.420029,-0.122429,0.160101,0.175069
20.450031,-0.019353,0.079901,0.200247
20.490025,0.150658,-0.024960,0.206041
20.520014,0.085396,-0.005736,0.434813
20.550001,0.138846,-0.033451,0.182490
20.579999,0.073051,-0.019471,0.239212
20.609998,0.161618,-0.090996,0.031515
20.650020,0.042558,-0.095026,0.099903
20.680001,0.009970,-0.088446,-0.123362
20.720016,0.023499,-0.023532,0.052220
20.750011,0.155777,-0.078097,-0.156462
20.779984,0.011527,-0.030929,-0.025816
20.830007,0.038990,-0.088556,-0.032550
20.860009,0.204870,-0.045159,-0.156293
20.890007,0.162474,0.046639,-0.198517
20.920006,0.064518,-0.010741,-0.131495
20.950004,0.094034,-0.022667,0.138753
20.980003,0.103964,-0.073948,0.314766
21.020000,0.157962,-0.112420,0.257913
21.049999,0.005387,-0.154867,0.556886
21.089996,0.257758,-0.218199,0.284019
21.129993,0.037296,-0.214493,0.259517
21.149984,0.010061,-0.194063,0.029916
21.189982,0.039113,-0.162003,-0.261605
21.219981,0.022743,-0.237635,-0.306892
21.249980,-0.016848,-0.247114,-0.361427
21.279979,0.140112,-0.210031,-0.612349
21.309977,0.075109,-0.133074,-0.719826
21.349983,0.195106,-0.070358,-0.899011
21.399974,0.090960,0.031179,-0.950783
21.429978,0.079012,0.172939,-0.838881
21.459977,0.134963,0.154583,-0.622097
21.489970,0.083919,0.166246,-0.258743
21.519973,0.113873,0.289716,0.000497
21.559964,0.081532,0.312079,0.197225
21.579970,0.141351,0.239378,0.346396
21.619949,0.104299,0.219160,0.441387
21.649945,0.122533,0.250030,0.450100
21.679947,0.190270,0.141143,0.440938
21.729963,0.104199,0.057040,0.596492
21.759960,0.160539,0.040036,0.229902
21.779958,0.201657,0.020810,0.116529
21.819957,0.190443,0.012395,-0.063017
21.849956,0.203815,-0.006758,-0.197751
21.879953,0.113821,0.032828,-0.073571
21.909952,0.044824,-0.006518,0.042692
21.949936,0.058491,-0.004387,-0.018202
21.979948,0.036395,-0.020381,0.088562
22.019945,0.163333,0.046496,0.088899
22.059944,0.058193,0.033888,0.193564
22.089941,0.112597,-0.037544,-0.045109
22.119914,0.058266,0.025518,-0.128089
22.149912,-0.120616,0.160149,0.069291
22.179912,0.013731,0.052430,-0.453812
22.209910,-0.021473,0.218748,-0.313989
22.249924,-0.010812,0.099253,-0.170406
22.299907,0.172898,0.164879,-0.054695
22.329906,0.078053,0.080663,0.371182
22.359904,0.090639,0.088133,0.298564
22.389926,0.060300,0.059488,0.156308
22.419925,0.217885,0.095224,0.471664
22.449923,0.213913,-0.023041,0.349210
22.489914,0.431035,0.090619,0.188445
22.519917,0.002192,-0.059750,0.090490
22.549912,-0.000372,-0.060739,-0.053757
22.589915,0.222731,0.018841,-0.310872
22.629912,0.063429,0.030691,0.167902
22.659912,0.106327,-0.068483,0.030584
22.689911,0.265864,0.071813,0.164875
22.719909,0.220572,0.114502,0.279446
22.749907,0.050372,0.001791,0.463711
22.779906,0.148914,0.050540,0.602856
22.819873,-0.074826,-0.056668,0.679249
22.849902,0.174826,-0.078471,0.516664
22.879900,0.243103,-0.149940,0.288672
22.929897,0.153459,-0.223305,0.305385
22.959876,-0.031150,-0.162196,0.453213
22.989895,0.033278,-0.134522,0.247136
23.019893,0.194655,-0.119876,0.075156
23.049891,0.231891,-0.115688,0.060211
23.089890,-0.092377,0.011725,0.427472
23.119888,-0.071489,-0.125683,0.095488
23.149885,0.138032,-0.102649,-0.009145
23.199860,0.131420,-0.120731,-0.062666
23.229883,0.034433,-0.185565,-0.019192
23.259881,-0.026036,-0.107772,0.319953
23.279867,0.021564,-0.165254,-0.073569
23.319865,0.120055,-0.079162,0.004879
23.349853,0.140756,-0.193246,-0.060930
23.389873,-0.019617,-0.054282,-0.087908
23.419871,0.161684,-0.113232,-0.276325
23.449870,0.057025,0.029816,-0.192173
23.489850,0.126789,-0.027858,-0.295079
23.519857,-0.113579,0.119667,-0.022821
23.549865,0.052796,0.033021,-0.185744
23.589840,0.069698,0.066964,0.085829
23.619851,0.058436,0.019981,0.290718
23.649852,0.232073,0.057976,0.274859
23.679851,0.011134,0.117055,0.382082
23.739848,0.208636,0.005764,0.331206
23.749832,0.169873,-0.085813,0.293316
23.799826,0.023283,0.044596,0.256671
23.829831,0.082869,-0.066291,0.016711
23.859830,0.111529,-0.068475,-0.010019
23.889829,0.095686,0.064875,-0.122539
23.919827,0.138924,-0.045022,-0.133838
23.949820,0.035424,0.012673,0.081264
23.979834,0.238915,-0.047365,-0.162724
24.019871,0.015901,-0.031133,0.368445
24.049870,0.189776,-0.081537,0.179009
24.079868,0.127016,-0.070739,0.186562
24.129864,0.133897,-0.039726,-0.040852
24.159863,0.056759,0.139554,-0.052670
24.189837,0.009597,0.004243,0.000021
24.219860,0.143361,0.011298,0.215858
24.249859,0.122094,-0.126086,0.029195
24.279858,0.156260,-0.062353,0.342597
24.309856,0.104830,-0.031250,0.198538
24.339826,0.008913,-0.034219,0.171832
24.379853,0.222106,0.023753,0.541789
24.429844,0.039940,-0.047289,0.592728
24.459848,0.162188,-0.036865,0.514758
24.489847,0.109809,-0.036713,0.445322
24.519846,0.110679,-0.086817,0.438635
24.549843,0.182183,-0.156165,0.219202
24.579841,0.068188,-0.197498,0.244645
24.609840,0.055381,-0.085462,0.104227
24.649812,0.134938,-0.074925,-0.007923
24.679818,0.176608,-0.155044,0.133732
24.729835,0.017208,-0.173937,0.259745
24.759833,0.168867,-0.224314,0.118395
24.779831,0.151032,-0.160316,0.132641
24.819829,-0.018785,-0.097088,0.239875
24.849828,0.067206,-0.243201,-0.030201
24.879827,0.121224,-0.113316,0.079483
24.919817,0.136486,-0.265595,-0.335922
24.949805,0.132264,-0.121764,-0.135327
24.979814,0.125721,-0.162258,-0.139822
25.019819,0.088856,-0.314601,-0.184458
25.059818,0.094331,-0.235704,-0.225695
25.089815,0.230211,-0.210343,-0.391200
25.119813,-0.005288,-0.102221,-0.224938
25.149811,0.064380,-0.064944,-0.470496
25.179788,0.174211,0.006250,-0.498980
25.209789,0.048419,0.020250,-0.210388
25.249807,0.068316,0.052085,-0.002935
25.279805,0.102015,-0.123932,0.077292
25.329785,0.096345,-0.087595,-0.080639
25.359785,0.100897,0.006214,-0.091878
25.389782,0.397253,0.246559,-0.251965
25.419798,0.060513,0.146029,-0.228931
25.449796,0.429503,0.297111,0.859508
25.479794,0.295942,0.166987,-0.568644
25.519790,0.027487,0.102022,0.527307
25.549790,0.298447,0.256888,0.875345
25.599789,-0.118944,0.180137,0.604701
25.629787,0.213470,-0.167861,0.013985
25.659786,0.027584,-0.126981,0.114690
25.689783,-0.212599,-0.039046,0.162242
25.719765,0.240194,-0.015228,-0.484155
25.759783,0.128544,0.236212,0.339971
25.789752,0.300215,-0.151788,-0.549028
25.819750,0.154623,0.088323,-0.379924
25.849752,0.208881,0.001806,-0.293867
25.889773,0.012071,0.058582,0.051605
25.919772,-0.069482,-0.158735,0.093169
25.949769,0.151875,0.023013,0.200962
25.989767,0.132661,-0.021912,0.592845
26.019767,-0.064645,-0.146215,0.627468
26.049765,0.294448,-0.321656,0.211855
26.079762,0.048979,-0.252915,0.294563
26.119759,0.145622,-0.276384,-0.116948
26.149757,0.044962,-0.360330,-0.211410
26.189749,0.060059,-0.299420,-0.574357
26.219748,-0.123665,-0.187082,-0.545916
26.249745,0.163077,-0.226008,-0.747069
26.279746,-0.161569,-0.138891,-0.814895
26.309751,0.056622,-0.203195,-1.123017
26.349743,-0.071717,0.031508,-0.874882
26.379726,0.072521,0.101502,-0.790123
26.419745,0.461577,0.256292,-0.827829
26.449744,0.119154,0.351754,-0.441507
26.489740,0.118362,0.199175,-0.173093
26.519740,0.052193,0.312243,-0.000433
26.549739,0.226222,0.396216,-0.294909
26.579737,0.202700,0.464377,-0.050919
26.619706,0.338696,0.536478,0.123605
26.649733,0.013823,0.522122,0.453758
26.679732,0.113984,0.368282,0.658034
26.719721,-0.007928,0.275667,0.943902
26.749712,0.238419,0.218688,0.785398
26.799725,-0.007530,-0.002804,1.400743
26.829721,-0.010434,-0.230591,0.695373
26.859723,0.180552,-0.021841,0.229557
26.889722,0.161001,-0.116493,-0.144921
26.919719,0.403598,-0.224748,-0.073987
26.949688,0.404049,-0.448652,-0.018589
26.989715,0.250168,-0.236118,-0.096451
27.019714,0.282452,-0.121937,-0.470862
27.049712,0.043741,-0.088648,0.131992
27.099710,-0.107653,-0.212901,-0.146456
27.129713,-0.259289,-0.133727,-0.030590
27.159680,0.116807,-0.207865,-0.574935
27.189680,-0.075740,0.152905,-0.581454
27.219675,0.237710,-0.100148,-1.215450
27.259702,0.059338,0.116182,-0.231232
27.279674,-0.010902,0.104602,-0.206704
27.309700,0.132592,0.383615,-0.257560
27.349696,0.234975,0.825681,-0.004065
27.379696,-0.154961,0.271031,0.204535
27.429694,-0.544994,0.390367,-0.046874
27.459691,0.514138,0.026422,0.281029
27.489690,0.223282,0.274053,0.999399
27.519689,-0.642488,0.586431,0.591031
27.549687,-0.126297,0.271872,0.531483
27.579686,0.613391,0.315774,1.089286
27.619676,0.491471,-0.125646,1.778185
27.649675,1.416400,1.326758,1.045503
27.689679,0.160255,0.046659,-0.228433
27.719678,-0.135725,-0.213474,1.147458
27.749676,-0.171943,-0.176947,0.743788
27.779674,0.037494,-0.181633,0.643276
27.819674,1.029861,-0.104589,-0.148268
27.849672,-0.201415,-0.265296,0.604409
27.879670,0.180019,-0.244689,0.310604
27.919668,-0.033716,-0.111268,0.959945
27.949666,0.202030,-0.592245,0.242443
27.979665,-0.029018,-0.279362,0.234602
28.029644,-0.015809,-0.482849,-0.095607
28.059635,-0.041955,-0.177971,0.063140
28.089642,0.224447,-0.251858,-0.489726
28.119641,-0.181227,-0.393162,0.383597
28.149640,0.467280,-0.257750,-0.458830
28.179638,0.091098,-0.095063,-0.046488
28.209637,0.271877,-0.354462,-0.176173
28.249651,-0.042402,-0.246165,-0.006685
28.299649,0.070167,-0.238553,-0.825114
28.329646,0.170621,0.175751,-0.472404
28.359645,-0.142834,0.139192,-0.570829
28.389644,0.015895,-0.006073,-0.729798
28.419643,0.205842,0.159482,-0.069691
28.449641,0.316911,0.117576,0.091390
28.489633,0.074994,0.160474,0.679339
28.519644,0.097085,0.000466,0.775684
28.549629,0.312719,0.164158,0.771190
28.599633,0.115924,0.044211,0.615651
28.629631,0.082345,-0.165756,0.668996
28.649630,0.068494,-0.160390,0.659413
28.679629,0.322527,-0.309875,-0.025286
28.719627,0.137796,-0.196478,0.021325
28.749626,0.067995,-0.374185,-0.325818
28.789624,0.001315,-0.186364,-0.411315
28.819622,0.035602,-0.087275,-0.454585
28.849620,0.113393,-0.038393,-0.489594
28.879619,0.206661,-0.037641,-0.278057
28.929615,-0.001275,-0.049205,0.342707
28.959612,0.133985,-0.298945,0.290016
28.979614,0.029548,-0.176201,0.472354
29.019616,0.137818,-0.173015,0.001153
29.049615,0.263391,-0.167954,-0.026629
29.079614,0.157089,-0.177343,0.041726
29.109612,0.101563,-0.170791,-0.019127
29.149617,0.153086,-0.042973,-0.029121
29.199609,-0.049785,-0.118157,-0.132059
29.229608,-0.075904,-0.041204,-0.410499
29.259608,0.040555,0.080070,-0.417339
29.289605,-0.039675,0.181472,-0.304574
29.319604,0.137649,0.193953,-0.481912
29.349607,-0.014922,0.245199,0.065459
29.379601,0.062370,0.202428,-0.029888
29.409604,0.070820,0.221446,0.281138
29.439599,0.060769,0.160569,0.551127
29.499578,0.194639,0.163515,0.451744
29.529595,0.116012,0.124373,0.196185
29.559592,-0.027799,0.037241,0.273738
29.589577,0.112864,-0.033497,0.395121
29.619576,0.119589,-0.037659,0.156829
29.649591,0.078024,-0.055692,0.164219
29.679589,0.068935,-0.130246,0.060170
29.719587,0.090423,-0.132460,0.127466
29.749586,0.164076,-0.029187,0.069251
29.789584,0.116581,-0.087642,-0.078507
29.829583,0.119357,-0.099488,0.151147
29.849582,0.000906,-0.100244,0.063557
29.889578,-0.018496,-0.151363,0.044048
29.919549,0.233837,-0.157263,0.047161
29.949548,0.217283,-0.205130,-0.091999
29.989574,0.185093,-0.209109,-0.525809
30.019573,-0.521985,-0.012823,0.283197
30.049559,-0.277995,-0.224428,0.228552
30.099542,-0.159304,-0.027267,-0.188162
30.129540,0.112210,-0.152856,0.315398
30.159567,-0.069741,-0.044556,-0.126307
30.189565,0.423071,-0.024306,-0.204311
30.219553,-0.122334,-0.190504,-0.097180
30.249536,-0.034602,-0.058502,-0.109297
30.279534,0.267696,-0.082636,-0.110570
30.339529,0.083274,0.097911,-0.039015
30.349557,0.249560,0.064438,0.062266
30.379555,-0.027812,0.125953,-0.189488
30.429553,0.036845,0.100079,0.098840
30.459528,0.025359,0.091535,0.184273
30.489551,-0.011156,0.025534,0.156139
30.519548,0.099908,0.031630,0.259787
30.549547,0.152024,-0.003679,0.282018
30.579546,0.185618,0.024058,0.089839
30.619524,0.194421,0.059191,0.144522
30.649534,-0.098843,-0.023274,0.086441
30.689540,0.091947,-0.013070,0.142012
30.729538,0.165525,-0.014320,0.180452
30.749537,0.033620,-0.019377,0.227468
30.789534,0.125674,-0.076023,0.099988
30.819533,0.125621,-0.080281,0.087143
30.849532,-0.066956,-0.075604,0.128884
30.879531,0.088144,-0.100429,0.040029
30.919529,0.150969,-0.064129,-0.356187
30.949526,0.006027,-0.084047,-0.378700
30.989525,0.199003,0.056278,-0.455972
31.029521,-0.035903,0.181368,-0.111183
31.059503,-0.040498,-0.127905,0.136070
31.089500,0.666936,0.259418,0.546184
31.119500,0.101152,0.030706,-0.035115
31.149499,-0.156626,-0.143632,0.130669
31.179498,0.557520,-0.020390,-0.111365
31.209497,0.245702,0.060114,0.201143
31.249512,-0.078408,0.017006,0.463825
31.299510,0.060647,-0.021638,0.366350
31.329508,-0.047072,-0.153460,0.103877
31.359507,-0.106128,0.007649,0.106914
31.389505,0.010364,-0.062736,-0.377515
31.419503,0.193551,-0.007865,-0.068471
31.459501,0.089941,-0.176113,0.017174
31.479501,0.131692,-0.114377,0.020709
31.519499,0.247236,-0.152953,-0.105609
31.549485,-0.083622,-0.168254,0.004437
31.599494,-0.356861,-0.108861,-0.286862
31.629494,-0.170634,-0.177532,-0.241340
31.659491,-0.050230,0.085304,0.193873
31.689458,-0.032222,0.104654,-0.215247
31.719488,0.102846,0.003040,-0.148524
31.749488,0.161112,-0.040952,0.160006
31.789485,0.203265,-0.095376,0.077425
31.819484,0.156728,-0.054789,0.134288
31.849482,-0.004850,-0.107627,-0.072178
31.879481,0.046234,-0.084271,-0.107321
31.929478,0.046095,-0.132249,-0.097968
31.959476,0.029733,-0.024588,0.001995
31.989456,0.043349,-0.080049,-0.008998
32.009475,0.067816,-0.027833,-0.077099
32.049462,0.075486,0.003048,-0.040603
32.079461,0.118868,0.027529,-0.160147
32.109456,-0.065609,-0.120104,-0.436578
32.149468,0.183663,0.174611,-0.382662
32.179465,-0.010897,0.068508,-0.518894
32.229455,0.245111,0.132747,-0.080532
32.259454,0.259499,0.125158,0.110678
32.289453,0.137933,-0.057832,-0.094376
32.309451,0.312207,0.218820,0.180630
32.349457,0.181587,0.207324,0.308814
32.389456,0.232717,0.091112,0.095539
32.419454,0.101643,0.085917,0.420354
32.449451,0.072717,0.093478,0.352021
32.499433,0.210122,0.101693,0.360581
32.529448,-0.020270,-0.054524,0.405721
32.559447,0.072818,-0.031166,0.175039
32.589441,0.285453,-0.015593,0.052201
32.619443,0.158858,-0.053727,0.133225
32.649443,-0.009543,-0.055453,0.077695
32.679441,-0.011313,-0.007507,0.142067
32.719439,0.121612,-0.067338,-0.200202
32.749437,0.176635,0.106114,0.195002
32.779436,-0.024791,-0.036162,-0.058958
32.829431,0.111360,0.194674,0.338678
32.859429,0.052344,-0.148240,-0.125838
32.889425,0.103233,0.088135,0.237659
32.919427,0.030140,-0.017189,0.129182
32.949425,0.225139,-0.320241,-0.179179
32.989426,0.278236,0.248572,0.535532
33.019424,0.597914,0.405854,0.082224
33.049422,-0.172681,0.097314,0.177941
33.079420,-0.023466,-0.385013,0.433823
33.129419,-0.368610,-0.029894,-0.391134
33.159417,0.765797,0.029168,0.049128
33.189416,0.429069,0.071572,-0.090528
33.219399,0.053064,0.031909,-0.094931
33.249399,0.347713,-0.105068,-0.386376
33.289411,0.054602,0.264190,0.148887
33.319408,-0.382479,-0.057767,-0.011980
33.349408,0.151698,-0.408615,-0.067458
33.389406,-0.118147,-0.225702,-0.080279
33.419403,0.090172,-0.278378,-0.142589
33.459403,0.084039,-0.163205,-0.191104
33.489402,0.229270,0.649928,-0.282830
33.519400,0.292894,0.306531,-0.326403
33.549398,0.118587,0.197720,0.615425
33.589384,-0.072709,0.160042,0.067142
33.619384,0.059829,0.082858,0.327391
33.649382,0.148394,0.063602,0.058011
33.679392,-0.044864,0.119419,0.168416
33.729389,0.516137,-0.064054,-0.013296
33.759387,0.015927,-0.146164,0.155189
33.789386,0.198422,-0.087803,-0.126609
33.819385,0.232037,-0.065578,0.050871
33.849383,0.153613,-0.012127,0.111017
33.879380,0.198597,0.083904,-0.267770
33.919380,0.103743,0.038266,-0.245561
33.949379,0.178797,-0.208218,-0.140087
33.989375,-0.005819,-0.050215,0.248677
34.029383,0.104720,-0.002256,-0.227620
34.049359,0.001366,-0.083079,-0.158590
34.089351,0.065230,0.044783,-0.313898
34.119360,-0.084228,-0.036951,-0.350639
34.149355,0.203446,0.017662,0.006459
34.189376,0.246982,0.074118,-0.099018
34.209354,-0.000116,0.062954,-0.111843
34.249373,0.340573,0.402288,-0.160276
34.299366,0.252201,0.313952,-0.057100
34.329348,0.112457,0.015814,-0.153799
34.359347,-0.129900,0.034252,0.315416
34.389366,0.171840,0.017678,0.118656
34.419364,0.144846,0.046426,0.315418
34.449363,0.130730,0.015569,0.259691
34.479362,0.127775,-0.042956,0.052088
34.519355,0.196428,0.004806,0.166660
34.549347,-0.017338,-0.009686,0.265998
34.599355,0.276584,0.064311,0.197954
34.629354,0.254418,0.059170,-0.087349
34.659353,0.206231,-0.040945,-0.062245
34.689351,0.048678,0.001006,-0.101510
34.719349,0.195175,0.108308,-0.016546
34.759334,0.353227,0.265744,-0.042430
34.789344,0.059787,0.005172,0.048095
34.819333,-0.062134,-0.240869,0.153618
34.849323,-0.209216,-0.406741,-0.058815
34.889341,0.053372,-0.221838,-0.052518
34.919339,-0.091423,-0.172446,-0.106704
34.959338,0.114525,0.168180,0.004103
34.989335,-0.603003,-0.030583,-0.084433
35.019316,-0.333215,-0.015258,0.034186
35.049319,-0.440894,-0.323264,0.345579
35.089331,-0.002829,-0.436869,-0.437265
35.109316,0.242735,0.375647,0.265918
35.139315,0.094708,-0.030072,0.016908
35.199316,0.074758,-0.033273,0.114125
35.229311,0.342606,-0.042158,-0.387097
35.259310,-0.053519,0.030926,0.225629
35.279309,0.237092,-0.014519,0.257364
35.309308,-0.034250,-0.030827,-0.023668
35.349307,0.210045,-0.080347,-0.165035
35.379302,0.098877,-0.068467,0.031654
35.419315,0.295011,-0.013477,0.041526
35.449314,0.254112,0.004645,0.229685
35.489312,0.187322,-0.128412,0.125328
35.529309,-0.052338,-0.108657,0.071002
35.559308,0.117169,-0.153699,-0.161142
35.589307,0.233108,0.118955,-0.161808
35.619306,0.212759,-0.036715,-0.020553
35.649304,0.047465,-0.231504,0.119453
35.679296,-0.007333,-0.092630,-0.207789
35.719276,0.152724,0.231050,-0.113092
35.749299,0.289848,-0.018651,-0.254466
35.799296,-0.069168,0.028950,-0.020125
35.829295,0.153131,-0.036406,-0.377404
35.859294,0.198055,0.074220,-0.081911
35.889293,0.055514,0.027584,0.017234
35.919291,0.109296,0.048883,-0.181396
35.949289,0.198591,-0.012096,-0.158246
35.989287,0.067736,0.171476,0.020159
36.019286,0.138529,0.234340,-0.234875
36.049284,0.134245,0.203420,-0.207264
36.099286,0.073948,0.170424,-0.037546
36.129283,0.150295,0.112703,-0.075277
36.159274,0.037056,0.318540,0.270995
36.189273,0.350181,0.330795,-0.068784
36.219271,-0.029264,0.324965,0.516793
36.249254,0.173778,0.185891,0.570472
36.279257,0.110069,0.223340,0.585651
36.309257,0.084699,0.245767,0.621040
36.349270,0.113623,0.098646,0.495214
36.399249,0.202317,-0.020900,0.385552
36.429248,0.125611,-0.052896,0.763631
36.459247,0.142963,-0.118055,0.944908
36.489260,0.255083,-0.310188,0.920319
36.519259,0.268485,-0.357256,1.183967
36.559242,0.270537,-0.507300,0.621130
36.579257,0.257486,-0.692654,0.389326
36.619256,-0.172142,-1.376775,-0.417817
36.649237,0.200739,-0.489454,-0.664117
36.689253,-0.195655,-0.643179,-0.589007
36.719252,0.257964,-1.014888,-1.210867
36.759231,0.114750,-0.408234,-0.673267
36.789248,0.146118,-0.285541,-1.008097
36.819247,0.014477,-0.201390,-0.265021
36.849246,0.249853,-0.326209,-1.164341
36.879243,0.059614,0.381741,-0.447739
36.909225,0.466025,0.084690,-0.920661
36.939222,0.421540,0.124044,-0.532582
36.979225,0.247496,0.106033,0.035783
37.029208,0.176212,0.079342,0.440601
37.059207,-0.052714,0.139418,0.724129
37.089235,-0.243331,0.066426,0.443836
37.119203,-0.427802,0.085020,0.331793
37.149203,-0.126525,-0.013611,0.075816
37.179202,-0.111189,0.078018,0.112644
37.209229,-0.250835,0.021826,0.123053
37.249227,0.852610,0.234032,-0.710513
37.289224,0.401956,0.325060,0.516691
37.319222,0.302302,0.092134,-0.135260
37.349221,0.264611,0.104914,0.063553
37.389205,0.444377,-0.090665,0.232321
37.419219,0.160928,-0.057097,0.472977
37.459205,-0.414225,0.002898,0.338817
37.489204,-0.086767,-0.004160,0.185910
37.519203,0.105628,-0.047208,0.127931
37.549203,0.106068,0.265257,-0.088318
37.589210,0.143389,0.189430,0.018103
37.619208,-0.056596,-0.041621,0.349172
37.659207,0.460506,0.542358,0.616170
37.689206,0.443504,0.074992,-0.607649
37.719204,0.372736,-0.077654,0.115947
37.749202,-0.144445,-0.164178,0.666922
37.789200,0.127193,-0.049434,0.220870
37.819199,0.437985,-0.116250,0.261031
37.849198,-0.123068,-0.372068,0.580297
37.879196,-0.110006,-0.054448,0.662174
37.929171,0.066181,-0.100270,-0.183274
37.959170,0.201523,-0.197663,-0.029983
37.989169,0.120174,-0.271010,-0.088064
38.019167,0.012194,-0.227135,0.069267
38.049166,0.164220,-0.126105,-0.125742
38.079165,0.094042,-0.108895,-0.113878
38.109164,0.185725,-0.166547,-0.364237
38.149183,-0.126948,-0.266170,-0.127512
38.189160,0.001560,-0.175738,-0.341806
38.219180,0.076520,-0.123709,-0.259266
38.249152,0.346661,-0.111468,-0.374657
38.289176,0.058169,-0.091802,-0.024025
38.319153,0.250997,0.105083,-0.216380
38.349174,0.253453,-0.035604,-0.299426
38.379172,0.387786,0.145226,-0.095456
38.419166,0.137772,-0.186874,0.002145
38.449165,-0.004837,-0.500886,-0.322223
38.499148,-0.096817,-0.089396,0.128816
38.529147,0.195127,-0.066445,-0.185256
38.559139,0.135258,0.221385,0.110168
38.589144,0.138782,0.062562,0.049460
38.619144,0.194964,0.128435,0.245338
38.649159,0.119010,-0.038804,0.320298
38.689157,0.167792,-0.154975,0.034368
38.719156,-0.040666,-0.040584,0.334216
38.749154,0.212226,0.042133,0.065357
38.779154,0.096670,-0.089783,0.030469
38.819124,-0.322755,0.173378,0.107876
38.859133,0.207092,-0.008737,-0.523645
38.889132,0.197354,0.238431,-0.151527
38.919131,0.220795,0.009388,-0.590861
38.949130,-0.025286,0.138682,-0.071887
38.979128,-0.076825,0.049267,-0.111900
39.009128,0.465753,0.167586,-0.396658
39.049147,-0.064053,0.373162,0.221101
39.079145,0.095952,-0.061929,-0.241836
39.129128,0.208426,0.110509,-0.216340
39.159141,0.218859,0.198881,-0.035287
39.189140,-0.187664,0.136828,0.106575
39.219139,-0.149916,0.179506,-0.137878
39.249137,0.168957,0.096743,-0.224954
39.279122,0.165675,0.305485,0.214264
39.319133,-0.110866,0.097165,0.198226
39.349104,0.210112,0.382058,0.386697
39.389129,0.244164,0.274249,0.505764
39.429128,0.309911,0.264545,0.427698
39.459127,-0.059153,0.141574,0.704910
39.489126,-0.002527,-0.020546,0.602501
39.519125,0.145349,0.063409,0.464027
39.549123,0.357149,0.116280,0.374517
39.579121,0.092369,-0.161409,0.455325
39.609119,0.089437,-0.051577,0.415328
39.649117,0.045892,-0.084389,0.134152
39.679116,0.283031,-0.010382,0.304388
39.729112,0.289920,-0.077505,0.193965
39.759090,0.150547,-0.068676,0.219690
39.789102,-0.034711,-0.147194,0.313328
39.819101,0.325554,-0.059534,0.339367
39.849099,0.010764,-0.072753,0.479338
39.879098,0.202237,-0.072088,0.418394
39.909096,0.187203,-0.142434,0.457544
39.949087,0.198097,-0.122232,0.516418
39.999074,0.216225,-0.124411,0.528154
40.029100,0.499693,-0.235850,0.384300
40.059099,0.014866,-0.214606,0.591814
40.089097,0.049013,-0.268921,0.324392
40.119096,0.298892,-0.232094,0.169607
40.149094,0.124801,-0.230722,0.343816
40.179093,0.131303,-0.290315,0.095603
40.219086,0.034121,-0.438317,0.170674
40.249089,0.167141,-0.166600,-0.169773
40.299087,0.103673,-0.212218,-0.333483
40.329086,0.053358,-0.296328,-0.326455
40.359084,0.067177,-0.220621,-0.422203
40.389083,-0.112426,-0.037869,-0.521592
40.419082,0.209674,-0.164379,-0.546938
40.449081,-0.208856,-0.011236,-0.042751
40.489078,0.151607,-0.157754,-0.745623
40.519077,-0.138687,0.096358,-0.202446
40.549067,0.227709,-0.058982,-0.335876
40.579074,0.201210,0.019993,-0.387790
40.629071,0.075796,-0.028829,-0.255539
40.659069,0.124041,-0.023659,-0.150813
40.689066,0.150014,-0.068412,-0.314540
40.719042,0.080229,-0.006467,-0.223364
40.749062,-0.007157,-0.047858,-0.201133
40.779061,0.071407,-0.007464,-0.323803
40.809060,0.215033,-0.061103,-0.299557
40.849061,-0.133315,0.122831,0.138539
40.899056,0.050094,0.117039,0.236762
40.929055,0.104717,0.074371,0.037780
40.959054,0.097262,0.053054,0.062239
40.989029,0.205482,-0.062328,0.067990
41.019051,0.154868,-0.020695,0.184694
41.049052,0.082191,0.010448,0.056666
41.079049,0.081724,-0.099343,0.028283
41.109048,0.004130,-0.091723,0.063603
41.149046,0.026463,-0.022434,-0.025773
41.179024,0.098822,0.031811,-0.103490
41.229044,0.198476,0.026324,-0.241375
41.259043,0.118228,-0.036365,-0.299398
41.299024,0.096470,0.021186,-0.165518
41.319039,0.090904,0.010571,-0.233957
41.349038,0.095272,0.048944,-0.242295
41.379037,0.129467,0.207608,-0.029875
41.419035,0.174107,0.133919,0.029543
41.449034,0.050724,0.142709,0.061675
41.499032,0.177701,-0.001449,-0.035310
41.529030,0.103591,0.067983,0.024924
41.559013,0.207451,0.020895,-0.082206
41.588998,-0.119179,0.181418,0.168774
41.618996,0.176743,-0.133558,-0.201647
41.648995,0.138480,0.040212,-0.025455
41.689022,0.025320,0.057582,-0.145001
41.719021,0.019228,0.113015,-0.110504
41.749019,0.078072,0.174704,-0.087741
41.799016,-0.019816,0.118379,0.000655
41.809004,0.158856,0.115876,-0.064577
41.859010,0.197683,0.226642,-0.027650
41.889014,0.158154,0.194753,-0.035295
41.918984,0.109455,0.107349,0.159765
41.949010,0.118154,0.084899,0.246185
41.979008,0.230114,0.059020,0.330425
42.009007,-0.071066,0.116034,0.667376
42.049006,0.164448,0.037777,0.471361
42.099004,0.117408,-0.025195,0.836441
42.129001,0.344860,0.093827,0.563514
42.159001,0.287419,-0.091481,0.441773
42.188999,0.048748,-0.069581,0.359678
42.218998,0.138694,-0.191120,-0.040617
42.248998,-0.004975,-0.043780,0.167509
42.278995,0.088607,-0.101398,-0.159780
42.308994,0.031076,0.026564,0.035398
42.348982,0.167045,-0.095292,0.071024
42.388989,0.208822,-0.076402,0.488887
42.428989,0.021885,-0.175083,0.400775
42.458987,0.256278,-0.102034,0.365861
42.488986,-0.006601,-0.168661,0.480952
42.528972,0.184321,-0.159196,-0.130203
42.548983,0.121546,-0.122795,-0.157768
42.588972,0.225290,-0.120796,-0.360790
42.618971,-0.067232,-0.110584,-0.278392
42.638979,0.047611,-0.176952,-0.251005
42.688976,0.038320,-0.110845,-0.230338
42.728975,0.059370,-0.031026,-0.049334
42.758973,0.096455,0.011413,0.196637
42.788969,0.074396,0.006080,0.303459
42.818950,0.021113,-0.017260,0.315097
42.848969,0.122996,-0.040902,0.231603
42.878965,0.079296,-0.042929,0.218780
42.908944,0.162856,-0.083560,0.080705
42.948945,-0.025713,-0.024450,-0.024703
42.998940,0.116534,-0.049233,-0.139199
43.028939,0.220621,0.019734,0.050274
43.058961,0.037428,-0.021445,0.078940
43.068957,0.249392,0.003665,0.076890
43.118935,0.161896,-0.020816,0.398384
43.148934,-0.025705,-0.117428,0.441705
43.178933,0.187566,-0.075294,0.500651
43.208937,0.281081,-0.093608,0.460995
43.248951,0.175939,-0.154216,0.620956
43.288949,0.096392,-0.230714,0.457080
43.308948,0.068551,-0.175158,0.339861
43.358946,0.231094,-0.233957,-0.068654
43.388924,0.038485,-0.190874,-0.082262
43.418944,0.178772,-0.234706,-0.473594
43.448942,0.060626,0.057650,-0.444179
43.478940,-0.038218,-0.283145,-0.700323
43.518934,-0.092181,-0.044492,-0.153013
43.548933,0.085789,-0.001010,-0.506478
43.598936,0.063989,0.049081,-0.377982
43.628934,0.124935,-0.059725,-0.521768
43.658932,-0.086654,0.022488,0.192468
43.688913,0.079650,-0.045838,-0.371028
43.718930,-0.008543,-0.063803,-0.289902
43.748928,0.058217,0.035126,-0.155816
43.788926,-0.060429,0.028002,-0.301139
43.818925,0.425174,0.152764,-0.419168
43.848924,0.150129,0.028637,-0.388799
43.898922,0.005837,0.048078,-0.240141
43.928902,-0.083028,0.124986,-0.138194
43.958920,0.274768,0.191374,-0.200953
43.988901,0.266044,0.169027,-0.243812
44.018928,-0.014753,0.107743,-0.074197
44.048932,0.167397,0.161721,-0.110271
44.078930,0.067229,0.219386,0.150775
44.108931,0.200396,0.043246,0.024765
44.148945,0.067653,0.160647,0.360939
44.198927,0.306903,0.227362,0.177473
44.228924,0.101493,0.105142,0.347805
44.258933,0.185848,0.064378,0.475776
44.288938,0.153062,0.090016,0.519732
44.318937,0.146062,-0.001602,0.422000
44.358911,0.148755,0.005766,0.601542
44.378935,0.093872,-0.069750,0.495362
44.418919,0.122386,-0.065509,0.412038
44.448930,0.091187,-0.081386,0.323276
44.498901,0.076782,-0.044994,0.092691
44.508929,0.022019,-0.131196,0.038807
44.558901,0.141578,-0.134541,-0.210192
44.588906,0.163836,-0.075906,-0.312448
44.628923,0.105490,-0.016076,-0.309968
44.648907,-0.002952,-0.059592,-0.205472
44.688921,0.017697,-0.014907,-0.117617
44.718920,-0.071682,0.090711,0.135142
44.748918,0.282911,0.074973,0.164888
44.798898,0.307726,-0.040338,0.407858
44.828900,0.199819,-0.081635,0.332865
44.858896,0.229837,-0.073203,0.391669
44.888883,0.183883,-0.120006,0.389286
44.918906,0.016273,-0.150489,0.275901
44.948912,0.104835,-0.195345,0.035229
44.988902,-0.079538,-0.153301,-0.071342
45.008892,0.089336,-0.211213,-0.144356
45.048904,0.103111,0.034996,-0.097062
45.078904,-0.076848,-0.228783,-0.507691
45.128902,-0.047086,-0.092481,-0.327447
45.158886,0.071013,-0.105533,-0.341437
45.188898,-0.003185,0.088541,-0.099948
45.218897,-0.088911,-0.208606,-0.292816
45.248896,0.164806,0.062601,-0.149280
45.278895,0.204774,0.036991,-0.284057
45.318893,0.279540,0.098652,-0.277325
45.348890,0.360439,0.094207,-0.279505
45.398890,0.138425,0.185290,-0.212707
45.428889,0.012947,0.045985,-0.352343
45.448887,-0.085794,0.137897,-0.365705
45.488886,0.146008,0.144892,-0.477910
45.518884,0.119315,0.193857,-0.204108
45.548883,0.035769,0.115017,0.077553
45.578882,0.093695,0.144683,0.186686
45.618884,-0.042978,0.144880,0.413234
45.648855,-0.002205,0.165003,0.494538
45.698877,0.069581,0.180768,0.626028
45.728874,0.090290,0.049616,0.582564
45.758873,0.148041,0.044110,0.674408
45.788872,0.084727,-0.089002,0.664075
45.818872,0.117958,-0.037912,0.679307
45.848870,0.299164,-0.000844,0.347175
45.888869,0.255543,0.028049,0.324906
45.918840,0.143667,-0.182715,0.188080
45.948863,0.236999,-0.098597,-0.031584
45.988862,-0.130649,-0.186252,-0.034115
46.028851,0.101464,-0.138774,-0.089469
46.058836,-0.063652,-0.086296,0.177974
46.078848,-0.040212,-0.163153,0.272640
46.118847,0.082008,-0.164458,0.198879
46.148846,0.087097,-0.128164,0.078341
46.178845,0.023069,-0.153596,0.060053
46.208836,0.032548,-0.189868,0.067330
46.248851,0.142952,-0.116636,0.227976
46.278851,0.234437,-0.274523,0.028352
46.328849,0.282863,-0.060313,-0.049548
46.358823,-0.010358,-0.176919,-0.053325
46.388847,0.028595,-0.151509,0.125239
46.418844,0.074768,-0.198436,-0.045984
46.448844,0.201905,-0.174259,0.070581
46.478843,0.162038,-0.113466,0.198072
46.518816,0.147848,-0.173111,0.150735
46.548833,0.148960,-0.166721,0.159318
46.598837,-0.041046,-0.227907,-0.286523
46.628836,-0.002578,0.036347,-0.192123
46.658835,0.026293,-0.178859,-0.612151
46.688833,-0.022801,-0.182104,-0.291618
46.718832,0.097252,-0.021262,-0.566426
46.748830,0.053886,0.012922,-0.509599
46.788828,0.131067,-0.079072,-0.229117
46.818827,0.087052,-0.026821,-0.054660
46.848826,0.122572,0.012503,0.027820
46.878825,0.044377,-0.120579,0.026038
46.928819,0.091488,0.013674,-0.042685
46.958821,0.101819,0.020103,-0.155909
46.988820,0.044747,-0.006506,0.017049
47.018811,-0.271425,-0.059137,0.096970
47.048805,0.330645,-0.099691,-0.403437
47.078808,0.023848,0.176946,-0.064209
47.108807,0.007572,0.038539,-0.360931
47.148813,-0.169196,0.089967,-0.072121
47.168791,0.053300,0.229207,-0.245568
47.208810,0.151304,0.288712,-0.298687
47.258799,0.165161,0.217211,-0.210401
47.288801,0.084326,0.361206,0.006239
47.318798,0.390372,0.279547,-0.098992
47.358803,0.165971,0.194501,0.442305
47.378793,0.038216,0.265187,0.364726
47.418801,0.213017,0.123961,0.590423
47.448796,0.071441,0.140099,0.938864
47.498779,0.010402,0.030426,0.950029
47.508775,0.023586,0.051663,1.061263
47.558789,0.181549,-0.144676,0.705416
47.588787,0.016697,-0.105934,0.721695
47.618790,0.194852,-0.270311,0.315802
47.648790,0.343162,-0.221629,0.363046
47.688789,0.088009,-0.363703,-0.054375
47.718787,0.289212,-0.287349,-0.154439
47.748765,0.092112,-0.331686,-0.143951
47.778764,0.010098,-0.282429,-0.210974
47.828783,0.064539,-0.200440,-0.259685
47.858781,0.108203,-0.174939,-0.286267
47.888779,0.157315,-0.214364,-0.551475
47.918779,0.118471,-0.146099,-0.446381
47.958758,0.106889,-0.130094,-0.421715
47.988756,0.210288,-0.055679,-0.468343
48.018756,0.050870,-0.015901,-0.416800
48.048753,-0.049994,-0.031721,-0.302538
48.088771,0.109516,-0.054448,-0.343302
48.118769,-0.046612,-0.064827,-0.201216
48.158769,0.159538,0.000911,-0.414597
48.188767,0.015502,0.104577,-0.278298
48.218766,-0.112349,-0.023123,-0.157165
48.248764,0.065717,0.091636,-0.205725
48.278761,0.117841,0.071259,-0.198371
48.308758,-0.034047,0.105674,-0.114805
48.338757,0.058407,0.122562,-0.193801
48.378758,0.043444,0.078871,-0.161983
48.428754,0.036993,0.088496,-0.193983
48.458752,0.242168,0.167021,-0.392334
48.468754,0.261516,0.019920,-0.516021
48.518750,0.108278,0.137237,0.087274
48.548748,0.374842,0.123949,-0.126555
48.588731,0.239172,0.155087,0.043534
48.608748,0.172782,0.168990,0.257319
48.648746,0.172089,0.191331,0.355741
48.678720,0.119682,0.180821,0.289451
48.728742,-0.000930,0.194833,0.529961
48.758741,0.208475,0.151751,0.463429
48.788720,-0.022859,0.108585,0.418372
48.818739,0.126117,0.017596,0.494766
48.848737,0.275399,0.214561,0.338748
48.878736,0.058017,0.047609,0.474646
48.918733,0.131805,0.151926,0.460243
48.948731,0.364684,-0.182072,0.037377
48.998730,0.284756,-0.103121,0.277166
49.028743,0.070702,-0.125032,0.288850
49.058742,0.087505,-0.360769,0.485216
49.088740,0.295593,-0.178736,0.072671
49.118738,-0.290099,0.034518,0.507779
49.148737,-0.111876,-0.048803,0.030744
49.178735,0.255148,-0.099537,-0.370296
49.218734,-0.119332,-0.112786,0.104118
49.248733,0.253015,-0.042998,-0.437298
49.298730,0.357193,-0.046580,-0.132830
49.328730,0.233778,-0.142144,-0.345951
49.358728,0.172818,-0.053603,-0.183043
49.388726,0.229514,0.003827,-0.161372
49.418724,0.103745,-0.072670,-0.115818
49.448694,0.096821,0.123354,0.188705
49.478693,0.117676,-0.028982,-0.136951
49.508692,-0.088878,0.038509,0.142339
49.538717,0.152706,0.048650,0.093187
49.598688,0.148328,0.144506,0.297792
49.628717,0.016889,0.046745,0.252410
49.658704,0.093668,-0.050515,0.404648
49.688703,0.204782,-0.040162,0.520072
49.718683,0.083271,-0.067600,0.508197
49.748709,0.200592,-0.011363,0.509547
49.778708,0.288151,-0.136228,0.382761
49.818708,0.175092,-0.064649,0.589395
49.848706,0.083029,-0.148453,0.165845
49.898704,0.107227,-0.148460,0.068609
49.928702,-0.017426,-0.172700,0.070642
49.958700,0.052520,-0.251738,0.053095
49.988700,0.097508,-0.147348,0.021605
50.018697,-0.025949,-0.152412,0.045112
50.048697,0.002599,-0.142844,-0.032840
50.088683,0.168717,-0.147488,-0.021152
50.118683,0.080407,-0.149433,0.002365
50.148692,-0.061267,-0.170437,0.005489
50.198691,-0.010126,-0.174649,-0.334318
50.228689,0.164770,-0.092954,-0.336048
50.258687,0.112184,-0.103435,-0.462172
50.288687,0.135411,0.059573,-0.361914
50.318685,0.159760,0.042474,-0.388725
50.348683,-0.021305,0.107785,-0.128687
50.388667,0.086705,0.117239,-0.338079
50.418679,0.143330,0.026412,-0.167638
50.448678,0.090172,0.049810,0.187234
50.488676,0.075526,0.053001,0.270595
50.528675,0.194870,0.044008,0.667986
50.558673,0.120851,-0.045336,0.587377
50.588673,0.065008,-0.079266,0.467536
50.618647,0.147348,-0.078268,0.229254
50.648645,0.193632,-0.101746,0.067776
50.678664,0.112152,-0.044045,0.169617
50.708644,0.133669,-0.099422,-0.047591
50.748656,0.033002,-0.105675,0.121216
50.798639,0.042092,-0.106681,-0.042266
50.828662,0.122049,-0.087678,-0.030428
50.858661,0.205136,-0.165564,-0.283033
50.888659,0.020565,-0.027660,-0.211713
50.918657,0.049720,-0.077752,-0.373333
50.948657,-0.000085,-0.036078,-0.342107
50.978656,0.171113,-0.042827,-0.409498
51.018637,0.018252,0.026776,-0.336423
51.048643,0.165378,0.074414,-0.327649
51.098650,0.131332,0.107379,-0.001578
51.128649,0.057679,0.014774,0.043875
51.138641,0.064300,0.058455,0.070825
51.188645,0.056171,0.102143,0.150133
51.218645,0.141521,0.022988,0.299263
51.258630,0.001160,-0.000193,0.387851
51.288642,0.107249,0.043365,0.208563
51.318615,0.128201,0.080533,0.406428
51.348632,0.154500,0.010125,0.381461
51.398637,0.215060,-0.062524,0.422717
51.428635,0.234965,-0.093450,0.349887
51.458634,0.113356,-0.143097,-0.024320
51.488611,0.157555,-0.160178,-0.178283
51.518631,0.088708,-0.122749,-0.101131
51.548630,0.116992,-0.059802,-0.329443
51.588627,0.130729,-0.090749,-0.328548
51.618625,0.160153,-0.098393,-0.093535
51.638626,0.159875,-0.117547,-0.164159
51.688620,0.086253,-0.097089,-0.239890
51.728597,0.036887,-0.138515,-0.321309
51.758600,0.059605,-0.003156,-0.359035
51.788599,0.047872,0.012874,-0.384588
51.818612,-0.037197,0.052515,-0.393966
51.848596,-0.039308,0.064250,-0.401380
51.888585,0.124202,0.119250,-0.263285
51.908585,0.105677,0.166121,-0.103821
51.958604,0.101862,0.190590,0.015982
51.978610,0.139755,0.224536,0.186045
52.028608,0.057184,0.082774,0.511167
52.058588,0.153589,0.153929,0.621587
52.088606,0.209626,0.177335,0.462501
52.118604,0.122603,0.154017,0.585267
52.158584,0.050879,0.076374,0.546393
52.188598,0.242829,-0.006067,0.385624
52.218578,0.163048,0.020768,0.379380
52.248595,0.233127,0.036642,0.296110
52.278594,0.063004,0.006053,0.410308
52.328594,0.069130,-0.032319,0.367358
52.358594,-0.000988,-0.049253,0.438868
52.388592,0.226171,-0.108318,0.275015
52.418591,0.128208,-0.187031,0.364356
52.448589,0.141010,-0.149730,0.329299
52.488587,0.016726,-0.134389,0.052681
52.518586,-0.026294,-0.229156,0.019047
52.548585,0.053898,-0.109924,-0.007028
52.588583,0.186541,-0.086856,0.171501
52.628578,0.183858,-0.105960,0.008990
52.658564,0.057180,-0.093945,0.003744
52.688559,0.127843,-0.157994,-0.147278
52.718561,0.076091,-0.148347,-0.017929
52.748560,0.171977,-0.176131,-0.321548
52.778559,0.015992,-0.028665,-0.315358
52.808550,0.048311,-0.087292,-0.477026
52.848571,0.070749,0.031938,-0.233835
52.898554,0.126760,0.011439,0.005375
52.908568,-0.003610,0.039369,0.171171
52.958551,0.186717,-0.007951,0.138812
52.988565,0.091700,-0.001470,0.401713
53.018549,0.121436,-0.014325,0.390950
53.058562,0.104455,-0.053588,0.099048
53.088559,0.089509,-0.100482,0.140464
53.118560,0.158677,-0.013163,0.025533
53.148528,0.113431,-0.050308,-0.107150
53.178527,0.055095,-0.088614,0.012321
53.228554,0.021091,-0.029881,-0.033292
53.258539,0.111381,-0.071650,-0.055980
53.288538,0.183536,0.043255,0.083534
53.318525,0.112861,-0.020521,0.023367
53.348524,0.032060,0.006308,0.032081
53.388547,0.131387,-0.078059,-0.123334
53.418546,0.054802,0.004061,0.162416
53.448545,0.106635,0.041334,0.005544
53.488543,0.039700,0.060661,0.031309
53.528540,0.156868,0.039056,0.071764
53.558539,0.114403,0.007131,0.150665
53.588515,0.021750,-0.010791,0.164479
53.618512,0.113164,-0.009905,0.112107
53.648523,0.132650,0.019866,0.184922
53.688533,0.117903,-0.019594,0.284076
53.708521,0.094325,-0.033383,0.248746
53.748532,0.009131,-0.045989,0.258313
53.788517,0.072858,-0.078107,0.243163
53.828528,0.097446,-0.117646,0.322006
53.838527,0.112242,-0.119795,0.287800
53.888525,0.114956,-0.045054,0.040327
53.918524,0.142357,-0.142137,0.059019
53.948522,0.051080,-0.085445,0.090338
53.988521,0.078101,-0.080064,-0.137222
54.018523,0.001415,-0.119354,-0.100024
54.048520,0.114423,-0.062032,-0.117899
54.078522,0.121762,-0.041763,-0.179760
54.128520,0.097564,-0.067356,-0.052748
54.138508,0.027302,-0.065067,-0.051650
54.188517,0.225436,-0.006860,-0.088774
54.228505,0.057715,-0.021500,0.098167
54.258503,0.124589,0.030651,-0.030847
54.288486,0.080913,-0.051382,0.057395
54.308511,0.082709,0.003961,0.237201
54.348483,0.079807,-0.089773,0.088170
54.388507,0.126932,-0.041924,0.124750
54.408508,0.138509,-0.048328,0.087315
54.458505,0.155483,-0.025956,0.040422
54.488503,0.104243,-0.049286,0.023211
54.518502,0.111879,0.049869,-0.030738
54.548491,0.137353,-0.067336,-0.277135
54.578482,0.033303,0.048944,0.041931
54.608488,0.101379,-0.028000,0.108805
54.648497,-0.047344,-0.006387,0.197642
54.678470,0.134590,-0.052642,0.205892
54.718483,0.049549,-0.161275,0.378406
54.758477,0.063247,-0.128215,0.292039
54.788491,0.096273,-0.078158,0.239952
54.818490,0.092796,-0.138905,0.216113
54.858479,0.104077,-0.099392,0.026141
54.878488,0.100160,-0.201666,-0.096226
54.918476,0.089969,-0.114250,-0.045525
54.948463,0.054489,-0.041579,-0.244920
54.998483,0.012485,-0.118207,-0.315850
55.028482,0.015938,-0.035056,-0.326078
55.058481,0.088239,-0.033069,-0.362412
55.088479,0.087591,-0.060870,-0.190542
55.118478,0.149574,-0.007713,-0.176375
55.158450,0.071890,0.012722,-0.185860
55.188449,0.234678,-0.022825,-0.183957
55.218452,-0.024008,-0.010692,0.173038
55.258472,0.310339,-0.013406,-0.173239
55.298471,0.096433,0.063684,0.128543
55.318469,0.121229,-0.089850,0.053969
55.348468,0.128928,-0.000306,0.032022
55.388468,0.140795,-0.074851,-0.185289
55.418466,0.042579,0.018039,-0.024486
55.448464,-0.040033,0.021529,-0.238140
55.478445,0.209770,0.015700,-0.368584
55.508463,0.065866,0.083077,-0.145939
55.548461,0.197404,0.108462,-0.339222
55.598448,0.240864,0.077462,-0.368252
55.608458,-0.013647,-0.000893,-0.289555
55.658447,0.182104,0.088119,-0.091447
55.688439,0.264643,0.174244,-0.006584
55.728454,0.106357,0.099873,0.200326
55.748442,0.089687,0.109451,0.311503
55.778427,0.092997,0.105157,0.355286
55.808439,0.048150,0.041278,0.386999
55.858423,0.132195,-0.014367,0.428344
55.898427,0.060558,0.031711,0.274755
55.908447,0.120005,0.008139,0.242558
55.958421,0.002690,-0.022499,0.213568
55.988426,0.109360,-0.104731,0.018631
56.018419,0.123288,-0.052509,-0.013140
56.058439,0.055164,-0.045958,-0.014156
56.088413,0.078471,-0.095059,0.003733
56.118411,0.094867,-0.005564,0.041617
56.148410,0.047470,-0.081102,-0.053880
56.178433,0.138346,0.021034,-0.047998
56.208408,0.121951,-0.065261,-0.089070
56.258433,-0.114195,-0.096767,0.023001
56.288432,-0.032029,-0.084182,0.068995
56.318432,0.176263,-0.070719,-0.079497
56.348431,0.180392,-0.080307,-0.111605
56.378430,0.102959,-0.083381,-0.010099
56.418428,0.057828,-0.108812,-0.118143
56.438414,0.024314,0.045842,-0.111943
56.498411,-0.049071,0.023593,-0.058624
56.518410,0.111464,0.017937,-0.132417
56.558417,0.060179,-0.036319,-0.128430
56.588408,0.158923,-0.104763,-0.141651
56.628413,0.199669,0.169061,-0.008734
56.648405,0.134280,0.101012,-0.076406
56.688419,0.229135,0.063450,-0.001843
56.718417,0.061369,0.054151,0.163758
56.748417,0.126262,0.031614,0.171098
56.798414,0.062587,0.003989,0.273534
56.808414,0.023449,0.024302,0.335626
56.858413,0.221692,-0.082671,0.171516
56.888411,0.178125,0.112441,0.329663
56.918411,0.180185,-0.103914,0.202394
56.948409,-0.078183,-0.090592,0.308307
56.988407,0.142272,-0.146390,0.035489
57.018405,0.035312,-0.096110,0.170418
57.058404,0.036670,-0.175988,0.005435
57.078392,0.005735,0.024453,0.109116
57.128403,0.071874,-0.070476,-0.094429
57.158402,-0.021190,-0.143797,-0.153576
57.188401,-0.091260,-0.114872,-0.119209
57.218400,0.094271,-0.041732,-0.115646
57.248399,0.158920,-0.070629,-0.182065
57.278398,-0.005831,-0.050038,-0.111394
57.308397,0.117305,-0.059854,-0.224734
57.338394,-0.031227,-0.060673,-0.046270
57.378394,0.123809,-0.079088,-0.163939
57.428374,0.117526,-0.008690,-0.210563
57.458372,0.153093,0.029560,-0.110994
57.468387,0.047902,0.004161,-0.008536
57.518370,0.076505,0.007320,-0.060880
57.558369,0.113739,0.066801,0.215101
57.588382,0.131165,0.009272,0.056648
57.608387,0.124100,0.036957,0.154032
57.658385,0.127173,0.038037,0.112368
57.678384,0.176028,0.029414,0.081323
57.728383,0.049635,0.037114,0.176489
57.758382,0.148417,-0.011070,0.152694
57.788382,0.109526,-0.013199,0.323646
57.818358,0.038780,-0.142030,0.315475
57.848350,0.078061,-0.037740,0.511568
57.888377,0.124322,-0.067615,0.350055
57.918377,0.119775,-0.133691,0.330460
57.958364,0.103901,-0.138830,0.013102
57.978374,0.066996,-0.190899,-0.161335
58.028373,0.029020,-0.140562,-0.457014
58.058373,0.008510,-0.112736,-0.582935
58.088372,0.044797,-0.081898,-0.590253
58.118371,0.063353,0.010787,-0.545941
58.148369,0.062255,0.001194,-0.545993
58.188355,0.046895,0.098197,-0.454637
58.218356,0.137621,0.054222,-0.328822
58.248361,0.119609,0.059581,-0.305282
58.278354,0.097672,0.054228,-0.157858
58.328364,0.069305,0.111830,-0.097700
58.358363,0.155009,0.191552,-0.015011
58.388362,0.133438,0.097778,0.001574
58.418331,0.049966,0.104260,0.208912
58.448332,0.060414,0.063735,0.189454
58.478331,0.120020,0.139339,0.094762
58.518358,0.121360,0.121157,0.207919
58.548356,0.149173,0.081606,0.297446
58.598346,0.073713,0.052953,0.376373
58.628355,0.089058,0.034712,0.544018
58.658354,0.045512,-0.004675,0.626083
58.688353,0.155036,-0.001873,0.930585
58.718348,0.128684,-0.058391,1.085208
58.748350,0.171921,-0.079754,0.970754
58.788350,0.185980,-0.182223,1.162511
58.808349,0.244103,-0.239883,1.083114
58.848348,0.167203,-0.263138,1.030650
58.898347,0.135007,-0.288274,0.263362
58.908345,0.158059,-0.245597,0.089432
58.958344,0.104591,-0.236730,-0.353919
58.988343,0.077203,-0.221608,-0.628425
59.018368,0.037727,-0.174397,-1.066226
59.058347,0.071089,-0.078354,-1.415094
59.088347,0.009755,-0.017484,-1.345294
59.118345,0.095542,-0.040177,-1.115720
59.148344,0.097718,-0.009431,-0.780054
59.188361,0.109972,0.032053,-0.647339
59.228360,0.014686,0.109872,-0.201339
59.258360,0.023034,0.057613,-0.197355
59.288359,0.112705,0.089374,-0.156600
59.318358,0.117351,0.026365,0.046061
59.348357,0.115295,-0.019510,0.123807
59.378354,0.093316,-0.013123,0.243515
59.408350,0.112295,-0.000335,0.166652
59.448353,0.101456,0.030655,0.066389
59.498345,0.084200,0.017930,0.007558
59.528344,0.081515,-0.012906,-0.142196
59.538352,0.029191,-0.015964,-0.189213
59.588338,0.078896,0.024514,-0.349272
59.628348,0.073268,0.056577,-0.487994
59.648340,0.115737,0.026634,-0.493511
59.688319,0.092418,0.025603,-0.457184
59.718345,0.067903,0.004328,-0.441268
59.748344,0.131873,0.029771,-0.442212
59.788342,0.103560,0.042563,-0.311782
59.828342,0.102309,0.041355,-0.016892
59.838313,0.058702,0.027578,0.015096
59.888340,0.140045,-0.014275,0.205033
59.918339,0.081123,-0.028125,0.456060
59.948338,0.107374,-0.110258,0.428891
59.988309,0.112008,-0.119931,0.565600
60.008335,0.129027,-0.108233,0.546428
60.048309,0.107124,-0.071991,0.656684
60.098333,0.077685,-0.080345,0.435473
60.128332,0.128574,-0.068690,0.348980
60.158331,0.088257,-0.006755,0.324755
60.188330,0.059599,-0.006705,0.354679
60.228327,0.087526,0.001725,0.426306
60.258322,0.146087,-0.080541,0.522001
60.278327,0.124852,-0.133837,0.603985
60.318299,0.065862,-0.092033,0.411906
60.348307,0.067054,-0.067523,0.425930
60.388323,0.029810,0.033001,-0.039359
60.428323,0.024596,0.118504,-0.457725
60.458321,-0.002545,0.178210,-0.346271
60.488320,0.122889,0.269521,-0.165228
60.518303,0.153614,0.234993,0.535487
60.548300,0.126701,0.100700,0.593521
60.578301,0.230447,-0.061571,0.581920
60.608300,0.131611,-0.062446,0.644978
60.658289,0.165995,-0.167826,0.160376
60.678314,0.034666,-0.114311,0.331656
60.718296,0.173355,-0.432365,0.436721
60.758312,0.230167,-0.640559,0.806320
60.768311,0.237805,-0.673674,0.906572
60.818303,0.241329,-0.597827,0.572559
60.858305,0.136824,-0.434187,-0.026994
60.878308,0.113203,-0.342367,-0.199575
60.918306,0.081556,-0.129899,-0.703783
60.948304,0.032125,-0.027311,-0.974597
60.998305,0.022446,0.049528,-1.095977
61.028303,0.041111,0.002459,-0.852630
61.058302,0.038728,-0.012603,-0.564227
61.088301,0.061511,-0.098058,-0.323230
61.118301,0.100671,-0.145217,0.008794
61.158285,0.118616,-0.149674,0.317551
61.188288,0.114130,-0.167760,0.262961
61.218296,0.115084,-0.147477,0.202170
61.248286,0.088395,-0.121805,0.148894
61.278295,0.079651,-0.094014,0.041134
61.308293,0.080658,-0.057739,-0.020637
61.358292,0.066752,-0.020364,-0.085605
61.388291,0.084913,-0.046015,-0.035532
61.418289,0.087396,-0.035412,0.070303
61.448265,0.108925,-0.052566,0.168502
61.478264,0.113620,-0.087849,0.355289
61.518261,0.102375,-0.113500,0.541063
61.548286,0.122609,-0.123147,0.553827
61.598258,0.119313,-0.128456,0.526018
61.628258,0.120338,-0.112452,0.494052
61.658258,0.111680,-0.093209,0.424710
61.688261,0.095533,-0.060076,0.327665
61.728280,0.086659,-0.013064,0.153766
61.758278,0.087599,0.031756,0.059988
61.778278,0.080064,0.047786,0.014134
61.808250,0.065082,0.081966,-0.050851
61.848276,0.071407,0.095829,-0.088173
61.878274,0.074629,0.105418,-0.090258
61.928243,0.075894,0.091515,-0.006994
61.958245,0.083506,0.075472,0.064503
61.988247,0.085719,0.070119,0.098664
62.018253,0.087836,0.058383,0.108215
62.048245,0.086723,0.051993,0.099632
62.088236,0.087619,0.046686,0.049385
62.118253,0.085377,0.045643,0.013052
62.148252,0.085329,0.039250,0.004469
62.198263,0.092779,0.006167,0.041682
62.208250,0.092783,0.002966,0.047007
62.258262,0.091687,-0.015160,0.057592
62.288261,0.095876,-0.034358,0.056417
62.318260,0.098000,-0.039695,0.060661
62.348260,0.097925,-0.048216,0.045656
62.378258,0.096846,-0.051412,0.044570
62.418241,0.097882,-0.056743,0.041335
62.448240,0.099916,-0.062065,0.015662
62.498255,0.094674,-0.059933,0.040250
62.508248,0.095718,-0.062066,0.035964
62.558252,0.097788,-0.060994,0.014600
62.588251,0.097871,-0.054607,0.034936
62.618250,0.101065,-0.061015,0.042379
62.658249,0.097999,-0.053562,0.076612
62.688247,0.099084,-0.051434,0.080897
62.718241,0.095850,-0.048221,0.063820
62.748245,0.094812,-0.038622,0.061736
62.778245,0.099050,-0.036495,0.052131
62.828240,0.090586,-0.023685,0.055408
62.838242,0.090586,-0.024751,0.056471
62.888237,0.096980,-0.026900,0.060732
62.928239,0.093901,-0.024779,0.097072
62.958237,0.097086,-0.025851,0.094928
62.978237,0.098184,-0.022659,0.102425
63.018217,0.096054,-0.023721,0.103488
63.048235,0.099214,-0.021589,0.089609
63.078234,0.094980,-0.022650,0.099220
63.128232,0.094950,-0.018378,0.084285
63.158231,0.094977,-0.016250,0.090708
63.168231,0.096031,-0.018384,0.089627
63.218229,0.094951,-0.016245,0.082160
63.258217,0.096034,-0.019451,0.091758
63.288225,0.094949,-0.015178,0.080029
63.338224,0.098133,-0.022650,0.085329
63.358223,0.097084,-0.021584,0.089609
63.388203,0.094982,-0.019450,0.096032
63.428221,0.099191,-0.029052,0.090636
63.458219,0.096050,-0.025853,0.104545
63.488219,0.096058,-0.027988,0.109875
63.518219,0.100284,-0.030126,0.101315
63.548217,0.098165,-0.027989,0.102395
63.578216,0.095992,-0.026910,0.086375
63.608215,0.098089,-0.026910,0.075690
63.638213,0.099200,-0.030120,0.094904
63.678188,0.100329,-0.035467,0.122655
63.728203,0.103572,-0.047215,0.152506
63.738187,0.101442,-0.048277,0.153569
63.788201,0.100374,-0.041874,0.145057
63.818199,0.103491,-0.042935,0.120476
63.858201,0.096025,-0.030116,0.101316
63.888181,0.099132,-0.031175,0.073529
63.908204,0.094866,-0.026898,0.066074
63.958202,0.093752,-0.022621,0.044729
63.988201,0.096976,-0.026900,0.059663
64.028209,0.095950,-0.032237,0.078866
64.038183,0.097001,-0.035437,0.077780
64.088207,0.101260,-0.041847,0.085223
64.118206,0.102294,-0.052511,0.087301
64.158203,0.100065,-0.053556,0.055242
64.188178,0.091347,-0.050304,-0.015257
64.218178,0.075044,-0.042746,-0.134879
64.258200,0.076721,-0.040542,-0.288726
64.298198,0.089385,-0.061885,-0.301668
64.328198,0.085221,-0.062958,-0.268551
64.358197,0.092783,-0.050193,-0.247113
64.388196,0.085513,-0.029940,-0.209604
64.418194,0.078642,0.023314,-0.076820
64.458167,0.085294,0.082990,-0.058330
64.488193,0.075863,0.073387,0.003591
64.508192,0.083302,0.076572,-0.004941
64.538191,0.083171,0.045660,-0.012590
64.598177,0.094908,-0.032238,0.086346
64.608186,0.098037,-0.034368,0.067101
64.658174,0.093601,-0.037529,0.011525
64.688173,0.085046,-0.003370,-0.040640
64.718172,0.078619,0.040385,-0.104506
64.758183,0.069147,0.089456,-0.124535
64.788180,0.073489,0.102233,-0.111644
64.808181,0.073571,0.101152,-0.082802
64.848179,0.084473,0.072285,0.035637
64.888165,0.092193,0.038090,0.164731
64.908177,0.094407,0.027404,0.205273
64.958175,0.097612,0.016729,0.221241
64.988173,0.093254,0.024221,0.179613
65.018173,0.089924,0.033851,0.123038
65.058141,0.084450,0.040289,0.065378
65.088142,0.088645,0.033890,0.051451
65.118140,0.087547,0.023231,0.052462
65.158167,0.091761,0.004028,0.059834
65.178138,0.094891,-0.008768,0.053352
65.228164,0.093670,-0.027940,0.023330
65.258163,0.092535,-0.027926,-0.000176
65.288163,0.090381,-0.019384,-0.018292
65.318161,0.087220,-0.010849,-0.017176
65.348146,0.092622,-0.014074,0.012722
65.388158,0.096981,-0.030100,0.064988
65.418151,0.100237,-0.040785,0.098051
65.438142,0.100233,-0.049317,0.106551
65.498140,0.097971,-0.046091,0.058489
65.528153,0.092549,-0.031129,0.008355
65.558144,0.090364,-0.015114,-0.028953
65.588155,0.088233,-0.005509,-0.040653
65.618146,0.089367,-0.006590,-0.016084
65.648140,0.091592,-0.014077,0.024476
65.678123,0.093808,-0.014096,0.053323
65.718147,0.093867,-0.010906,0.069368
65.748144,0.092806,-0.008771,0.068311
65.788143,0.096975,-0.009832,0.039456
65.828141,0.097950,-0.017287,0.018046
65.838142,0.092599,-0.020470,0.012687
65.888136,0.089245,-0.052437,-0.003515
65.918138,0.100934,-0.073793,0.013460
65.958137,0.100905,-0.087655,0.019795
65.988133,0.097682,-0.081243,0.002736
66.018114,0.096580,-0.065234,-0.028162
66.048133,0.091218,-0.047082,-0.062251
66.078132,0.091205,-0.033213,-0.082476
66.128131,0.090187,-0.028952,-0.071768
66.138128,0.089146,-0.026820,-0.066413
66.188128,0.092456,-0.024713,-0.030075
66.228126,0.092590,-0.020469,0.009482
66.248125,0.093720,-0.016215,0.026600
66.288120,0.092771,-0.009832,0.057621
66.308124,0.094932,-0.009842,0.068305
66.348121,0.094954,-0.009846,0.075784
66.388120,0.094942,-0.016244,0.078954
66.428119,0.095987,-0.017309,0.073606
66.458100,0.093814,-0.014097,0.055460
66.488111,0.091668,-0.008756,0.043737
66.518110,0.090590,-0.004485,0.034145
66.548097,0.091638,-0.005551,0.029865
66.588097,0.093795,-0.013028,0.047987
66.618096,0.095930,-0.021567,0.059693
66.648089,0.093805,-0.025829,0.066080
66.688108,0.094868,-0.022632,0.061824
66.728107,0.092717,-0.014090,0.044776
66.738105,0.093783,-0.011959,0.042651
66.788104,0.090603,-0.003421,0.037356
66.818104,0.092782,-0.000234,0.050194
66.848103,0.092807,-0.001304,0.059805
66.878101,0.091758,-0.001305,0.065147
66.918082,0.093872,-0.007707,0.067249
66.948069,0.094898,-0.014103,0.061871
66.988097,0.093774,-0.018357,0.046889
67.028095,0.091575,-0.021541,0.027640
67.058094,0.092627,-0.021542,0.023366
67.088093,0.092625,-0.025808,0.027616
67.128089,0.094789,-0.027952,0.041494
67.148090,0.095860,-0.026889,0.042568
67.188089,0.092656,-0.029013,0.041489
67.218088,0.094790,-0.025819,0.039369
67.248087,0.093733,-0.023684,0.039381
67.278085,0.092684,-0.022618,0.043661
67.328083,0.093771,-0.017290,0.044758
67.358082,0.092707,-0.016221,0.043696
67.388079,0.093775,-0.016224,0.044764
67.418062,0.094852,-0.017295,0.050100
67.448061,0.094851,-0.024762,0.058607
67.478061,0.095907,-0.030096,0.061783
67.518076,0.093744,-0.032219,0.053224
67.558056,0.092639,-0.030077,0.037209
67.598055,0.094757,-0.026880,0.029747
67.608072,0.093696,-0.025811,0.029753
67.658052,0.092652,-0.022612,0.032976
67.688043,0.093739,-0.023685,0.041518
67.728068,0.093753,-0.021554,0.043666
67.748048,0.092692,-0.020486,0.043672
67.788064,0.092690,-0.018352,0.040479
67.818064,0.093776,-0.013024,0.041576
67.848062,0.094867,-0.013031,0.050124
67.888037,0.093828,-0.011966,0.057609
67.918031,0.093805,-0.013029,0.051192
67.958041,0.093745,-0.017286,0.036210
67.988056,0.092641,-0.020477,0.026577
68.018055,0.093651,-0.026870,0.015857
68.048054,0.092573,-0.028999,0.013709
68.088050,0.092556,-0.031130,0.010492
68.118028,0.093632,-0.026867,0.009446
68.148043,0.093655,-0.025804,0.015863
68.178046,0.093701,-0.022612,0.027633
68.228047,0.091596,-0.025811,0.039370
68.238047,0.094806,-0.024755,0.043648
68.288046,0.093783,-0.018359,0.050095
68.318043,0.093797,-0.016228,0.052243
68.348013,0.094855,-0.017296,0.051169
68.388041,0.094831,-0.019425,0.045815
68.418018,0.094819,-0.019423,0.041541
68.448038,0.093756,-0.016221,0.038353
68.488018,0.092725,-0.011958,0.044788
68.528017,0.093827,-0.014100,0.059734
68.538035,0.092765,-0.015164,0.061865
68.588014,0.095970,-0.025840,0.077833
68.618032,0.095936,-0.035435,0.077780
68.658029,0.096915,-0.040756,0.055313
68.688029,0.094714,-0.037539,0.027551
68.718027,0.091469,-0.030057,0.001950
68.758025,0.090392,-0.021519,-0.011893
68.798024,0.091522,-0.019399,0.007351
68.808011,0.091552,-0.017271,0.014842
68.858022,0.092762,-0.014097,0.059734
68.898017,0.094978,-0.014116,0.088582
68.918019,0.095000,-0.015187,0.097124
68.958014,0.096069,-0.018390,0.102449
68.978017,0.098182,-0.019459,0.098168
69.018042,0.094920,-0.020507,0.076794
69.038043,0.095944,-0.019436,0.061841
69.088041,0.092644,-0.019411,0.026583
69.128040,0.091531,-0.020467,0.011619
69.138037,0.092578,-0.023667,0.009464
69.188037,0.094731,-0.029009,0.023324
69.218034,0.093695,-0.029011,0.032941
69.248034,0.092656,-0.029013,0.041489
69.278032,0.094779,-0.029017,0.039351
69.308033,0.093736,-0.023685,0.040449
69.348028,0.094854,-0.018362,0.052231
69.378012,0.093821,-0.014099,0.057597
69.418009,0.094888,-0.015168,0.059728
69.458008,0.094850,-0.020495,0.053288
69.488007,0.093773,-0.019424,0.047952
69.528004,0.094802,-0.021554,0.038324
69.558003,0.094768,-0.025815,0.031889
69.588003,0.094740,-0.029010,0.026530
69.618002,0.094723,-0.031141,0.023313
69.658018,0.094740,-0.030077,0.027592
69.698010,0.093715,-0.026881,0.037226
69.708016,0.093725,-0.026883,0.040432
69.758013,0.095900,-0.024762,0.053264
69.788013,0.092716,-0.022623,0.054345
69.818011,0.095919,-0.018365,0.052231
69.858006,0.092713,-0.017289,0.046895
69.888010,0.093784,-0.016226,0.047969
69.918004,0.092723,-0.015157,0.047976
69.958005,0.093774,-0.017291,0.045827
69.988003,0.093753,-0.020487,0.042604
70.028003,0.094790,-0.024752,0.038306
70.058001,0.092658,-0.024747,0.037238
70.088000,0.091591,-0.022611,0.034045
70.117998,0.092642,-0.024744,0.031896
70.157977,0.094780,-0.025817,0.036163
70.177996,0.094793,-0.026886,0.041500
70.207978,0.093734,-0.027951,0.044700
70.247975,0.092677,-0.023683,0.042586
70.277990,0.092659,-0.021547,0.034050
70.327989,0.094764,-0.025814,0.030821
70.357989,0.093699,-0.027945,0.032946
70.387986,0.095800,-0.032212,0.028649
70.417983,0.095757,-0.036471,0.019009
70.447965,0.093598,-0.036462,0.009394
70.477967,0.093582,-0.036459,0.004051
70.507965,0.091451,-0.034321,0.000858
70.557963,0.093588,-0.032193,0.000869
70.587978,0.093591,-0.031127,0.000875
70.617977,0.093588,-0.032193,0.000869
70.657976,0.091424,-0.031116,-0.011946
70.687958,0.090351,-0.027912,-0.018339
70.717963,0.091466,-0.022590,-0.007625
70.757970,0.091493,-0.019394,-0.002265
70.777971,0.090446,-0.017261,0.000952
70.817968,0.092636,-0.017276,0.021252
70.857967,0.092685,-0.015151,0.035154
70.887949,0.094846,-0.016228,0.046901
70.917948,0.094901,-0.014104,0.062939
70.957957,0.097132,-0.008792,0.090748
70.977946,0.100371,-0.003473,0.099324
71.027959,0.100616,-0.005647,0.183721
71.057959,0.105130,-0.013166,0.277703
71.087950,0.108511,-0.035605,0.366262
71.117956,0.116185,-0.047392,0.453809
71.157928,0.115153,-0.045262,0.462369
71.187951,0.109838,-0.028184,0.445368
71.217951,0.105654,0.012347,0.423154
71.257926,0.089734,0.081709,0.359432
71.287924,0.078131,0.141451,0.326640
71.317924,0.057955,0.210822,0.263987
71.347931,0.047329,0.266311,0.206598
71.387945,0.036768,0.330321,0.161008
71.417941,0.032558,0.363390,0.138753
71.447941,0.024100,0.375133,0.145230
71.477941,0.026023,0.370896,0.081099
71.507939,0.033189,0.365593,-0.008683
71.557923,0.040535,0.317593,0.011352
71.587914,0.042724,0.270645,0.085886
71.617935,0.066258,0.216173,0.186017
71.657933,0.087614,0.140380,0.294578
71.677932,0.084402,0.123323,0.308375
71.717929,0.088468,0.089212,0.283612
71.747929,0.092474,0.056177,0.237486
71.797927,0.099420,-0.006690,0.140977
71.807925,0.101510,-0.021621,0.145168
71.857924,0.110856,-0.085605,0.140540
71.887923,0.118268,-0.122949,0.170250
71.927892,0.134384,-0.184876,0.290642
71.947921,0.142994,-0.211578,0.352465
71.987890,0.141119,-0.225483,0.453893
72.017888,0.148924,-0.167957,0.504425
72.057915,0.125019,-0.060264,0.574473
72.097914,0.124571,-0.042231,0.759416
72.127913,0.148477,-0.089298,0.974981
72.157911,0.170206,-0.139553,1.178777
72.187910,0.188818,-0.152479,1.364614
72.217908,0.188138,-0.162141,1.504530
72.247907,0.194695,-0.158983,1.556900
72.277905,0.191521,-0.156846,1.561187
72.307892,0.202060,-0.167519,1.537619
72.347903,0.196463,-0.152527,1.428720
72.377902,0.200187,-0.148181,1.244967
72.417887,0.175864,-0.124512,0.917084
72.457886,0.157764,-0.099762,0.532578
72.487885,0.142792,-0.083542,0.136270
72.527894,0.130827,-0.067298,-0.323077
72.557887,0.126097,-0.061877,-0.486521
72.587863,0.116108,-0.056454,-0.628595
72.617877,0.109525,-0.056407,-0.693769
72.647863,0.107624,-0.053241,-0.621096
72.687887,0.116514,-0.063989,-0.484394
72.727886,0.133926,-0.097157,-0.320037
72.757885,0.155628,-0.132473,-0.142871
72.787884,0.201846,-0.145449,0.017316
72.817871,0.164828,-0.149673,0.104916
72.857854,0.189258,-0.171052,0.110135
72.887860,0.189304,-0.148660,0.099573
72.917852,0.142334,-0.112266,0.016444
72.947852,0.137849,-0.090885,-0.083873
72.997874,0.083356,-0.026730,-0.222407
73.027873,0.033314,0.102451,-0.372339
73.057872,-0.028783,0.132515,-0.521744
73.087871,-0.079688,0.263798,-0.606487
73.117868,-0.107660,0.298043,-0.743055
73.147868,-0.117331,0.378080,-0.865487
73.177867,-0.116058,0.385510,-0.804544
73.207865,-0.103978,0.347022,-0.637009
73.247863,-0.065401,0.297827,-0.497320
73.277862,-0.027070,0.254006,-0.446284
73.327851,0.027834,0.142848,-0.115684
73.337860,0.023688,0.125772,-0.058080
73.387848,0.045034,0.080915,0.011119
73.417848,0.057537,0.075598,-0.074391
73.457854,0.049008,0.054286,-0.053136
73.487853,0.072478,0.024358,-0.003089
73.517851,0.073410,0.001977,-0.021376
73.557849,0.089613,-0.040590,-0.250265
73.577849,0.087299,-0.030954,-0.322867
73.617838,0.076650,-0.015996,-0.340946
73.647845,0.073214,-0.007415,-0.431718
73.677844,0.077045,0.005447,-0.589780
73.717843,0.051246,0.052479,-0.726279
73.757841,0.028767,0.106951,-0.829615
73.777832,0.057504,0.116488,-0.844528
73.817815,0.056814,0.048160,-0.639759
73.847815,0.057305,0.065145,-0.495423
73.887827,0.091411,0.045862,-0.461346
73.917821,0.074795,0.034097,-0.307548
73.947825,0.064917,0.058527,-0.078760
73.987828,0.113952,-0.043995,0.059565
74.027808,0.115035,-0.085601,0.113828
74.057828,0.096936,-0.094094,0.124470
74.087827,0.124447,-0.093061,0.065704
74.107807,0.091405,-0.049247,0.002913
74.137817,0.088898,-0.011845,-0.166767
74.187816,0.087544,0.087407,-0.378845
74.227815,0.066519,0.140745,-0.350767
74.257814,0.061498,0.151373,-0.262025
74.287812,0.078937,0.165134,-0.143354
74.317791,0.081261,0.164030,-0.077116
74.357790,0.088878,0.159720,-0.017307
74.387813,0.094475,0.151129,0.084148
74.417812,0.087963,0.126630,0.071194
74.457810,0.083516,0.089337,0.051757
74.497808,0.121017,0.056146,0.169097
74.507808,0.115771,0.039078,0.214949
74.557807,0.130027,-0.002622,0.401697
74.587805,0.125913,0.013363,0.431703
74.617802,0.115276,0.046453,0.396628
74.657778,0.110941,0.080609,0.331641
74.677800,0.111916,0.092355,0.287898
74.717780,0.106645,0.120092,0.273093
74.747779,0.131461,0.142383,0.356550
74.797795,0.125258,0.096499,0.471693
74.807776,0.124297,0.080484,0.525029
74.857793,0.159874,-0.041271,0.813905
74.887791,0.159745,-0.158585,0.907285
74.917789,0.176895,-0.211976,1.007423
74.947788,0.182137,-0.221575,0.991342
74.977788,0.207685,-0.193898,0.957297
75.007786,0.189755,-0.166152,0.982028
75.037784,0.181473,-0.148038,1.039827
75.097780,0.141247,-0.076518,1.034887
75.127778,0.134734,-0.070083,0.985775
75.157765,0.156118,-0.084013,1.031637
75.187776,0.217156,-0.199409,1.282077
75.227775,0.227587,-0.240998,1.258340
75.247773,0.234580,-0.229204,1.090654
75.287756,0.206670,-0.183237,0.961630
75.317771,0.167016,-0.139371,0.824048
75.357770,0.155737,-0.072041,0.534867
75.397768,0.170786,-0.087923,0.245223
75.407767,0.167504,-0.079368,0.205737
75.457765,0.202779,-0.102762,-0.076474
75.487764,0.190268,-0.152737,-0.285096
75.517763,0.194122,-0.152679,-0.420792
75.557745,0.158054,-0.096085,-0.441841
75.587736,0.157283,-0.091865,-0.348862
75.617739,0.120524,-0.087599,-0.184286
75.657755,0.144594,-0.081359,0.024093
75.687754,0.167537,-0.102840,0.244073
75.727753,0.238441,-0.174572,0.538558
75.757751,0.280673,-0.224917,0.833167
75.787750,0.285218,-0.266575,0.977180
75.817749,0.359121,-0.340240,0.852816
75.847747,0.290793,-0.287788,0.730247
75.887745,0.252010,-0.235358,0.517920
75.907745,0.239694,-0.203231,0.278763
75.937744,0.191383,-0.173190,0.111191
75.997741,0.192178,-0.093146,-0.072145
76.027738,0.252424,-0.207344,-0.087745
76.057719,0.327785,-0.186141,-0.191288
76.087737,0.230039,-0.176355,-0.132445
76.117735,0.236297,-0.238215,-0.103938
76.157732,0.283631,-0.269336,0.094614
76.187731,0.275728,-0.287553,0.321030
76.217731,0.276594,-0.282189,0.248404
76.257701,0.177232,-0.262533,-0.244027
76.277727,0.171125,-0.200523,-0.578113
76.317708,0.051319,-0.065760,-0.920321
76.357698,0.054340,-0.086897,-1.309359
76.387697,0.050427,-0.109345,-1.167376
76.417695,0.090047,-0.095604,-1.108544
76.447720,0.047816,0.033501,-1.138810
76.487718,-0.017186,0.067790,-1.196303
76.517714,0.038884,0.030214,-0.917654
76.557714,0.040605,0.001127,-0.308790
76.587713,0.108512,-0.002363,-0.027819
76.617712,0.112082,0.013568,0.079114
76.647709,0.111090,0.005025,0.113258
76.687684,0.150482,-0.089999,0.222778
76.727698,0.106994,-0.019527,0.196465
76.747705,0.087298,-0.000195,-0.003227
76.787704,0.086474,0.045635,0.023736
76.817694,0.078534,0.089292,0.166084
76.837701,0.084677,0.085052,0.089130
76.887699,0.074614,0.147912,0.211283
76.927698,0.100268,0.085971,0.316714
76.957696,0.071870,0.164912,0.341729
76.987694,0.111863,0.140365,0.214438
77.017664,0.073696,0.134024,0.276383
77.047665,0.086964,0.106354,0.117026
77.087690,0.063540,0.100007,0.124476
77.107667,0.079164,0.081895,0.029280
77.157666,0.074876,0.044575,0.063267
77.197664,0.099185,0.022150,0.028947
77.207685,0.099324,0.032794,0.063196
77.257681,0.101870,0.040186,0.193589
77.287672,0.123498,0.003816,0.347242
77.317680,0.124713,-0.014346,0.418729
77.347678,0.106342,0.000674,0.310901
77.387676,0.095909,0.013637,0.011805
77.417675,0.085999,-0.009754,-0.070593
77.457672,0.084660,-0.026772,-0.142273
77.487671,0.090017,-0.056657,-0.096495
77.527668,0.101090,-0.061019,0.050927
77.537665,0.101189,-0.055702,0.077668
77.587667,0.115363,-0.073922,0.210054
77.617665,0.113280,-0.090992,0.245220
77.657660,0.126024,-0.130483,0.280259
77.687634,0.129229,-0.128358,0.281338
77.717658,0.112198,-0.104854,0.255828
77.737660,0.114311,-0.080322,0.221772
77.777655,0.090618,-0.069558,0.119264
77.827655,0.095685,-0.071660,0.035911
77.857637,0.087882,-0.081185,-0.069917
77.887653,0.082381,-0.052343,-0.162714
77.917652,0.089564,-0.073649,-0.228009
77.947649,0.078640,-0.084245,-0.308199
77.977619,0.082698,-0.070355,-0.391464
78.007629,0.068895,-0.037263,-0.416922
78.047645,0.081678,-0.031959,-0.421170
78.077644,0.088574,-0.026725,-0.257668
78.117626,0.081341,0.011656,-0.228607
78.157625,0.100686,-0.012951,-0.140064
78.187623,0.103172,-0.003415,-0.032097
78.217637,0.102078,0.033927,-0.085315
78.247636,0.084915,0.015852,-0.106779
78.287634,0.077158,0.003120,-0.193393
78.317632,0.053254,-0.011681,-0.336643
78.357630,0.071825,-0.041493,-0.500286
78.377630,0.054938,-0.012679,-0.484097
78.427628,0.077728,-0.015826,-0.692470
78.457626,0.075141,-0.004186,-0.503287
78.487624,0.073474,-0.023459,-0.326028
78.517623,0.069921,0.006475,-0.480790
78.557620,0.034290,0.014104,-0.654899
78.587592,0.038383,-0.025345,-0.664733
78.617590,0.052978,-0.040261,-0.751364
78.647608,0.028514,0.009925,-0.801300
78.677587,0.049735,-0.022112,-0.788660
78.727614,0.061391,-0.018037,-0.456348
78.757611,0.075983,0.025541,-0.256309
78.787610,0.079800,0.069164,-0.099006
78.817609,0.113176,0.072228,0.020671
78.847601,0.114656,0.059356,0.174459
78.877607,0.127091,-0.004617,0.134571
78.907603,0.102420,0.014669,0.051343
78.947603,0.100909,0.069147,-0.160982
78.997591,0.116174,0.070120,-0.042381
79.007618,0.120628,0.076478,0.015350
79.057600,0.125296,0.071067,0.158494
79.087611,0.123196,0.096667,0.138334
79.127612,0.125348,0.104126,0.137306
79.157611,0.136956,0.088116,0.121188
79.187609,0.140007,0.082800,0.079488
79.217608,0.140136,0.104112,0.097769
79.247607,0.123171,0.130805,0.090441
79.277604,0.134791,0.143595,0.044564
79.327595,0.177772,0.070899,0.259984
79.357587,0.176033,0.007904,0.463715
79.387593,0.148975,0.005729,0.675265
79.417572,0.162390,-0.042232,0.588453
79.457571,0.156385,-0.023081,0.694337
79.487573,0.148652,-0.057327,0.996526
79.517572,0.136979,-0.075440,1.030620
79.557567,0.149785,-0.100008,1.068947
79.597584,0.145677,-0.106423,1.126610
79.607590,0.145633,-0.109616,1.115908
79.657586,0.199358,-0.112842,0.926759
79.687585,0.161624,-0.103080,0.759073
79.717584,0.121310,-0.100705,0.449241
79.747583,0.108907,-0.074963,0.188680
79.777582,0.124370,-0.095181,0.042186
79.807581,0.125417,-0.110115,0.053857
79.857577,0.092774,-0.105834,0.170350
79.897573,0.090612,-0.125199,0.537796
79.927571,0.162805,-0.126569,0.825188
79.957569,0.193106,-0.126718,0.988655
79.987568,0.168017,-0.150205,1.171239
80.027569,0.194844,-0.205767,1.305554
80.057568,0.218255,-0.175950,1.266179
80.087567,0.231808,-0.177000,1.171077
80.117565,0.217159,-0.148209,1.223593
80.157561,0.275559,-0.238807,0.919638
80.187562,0.258818,-0.257843,0.684475
80.227561,0.237221,-0.191610,0.506411
80.257558,0.185060,-0.196653,0.160213
80.287558,0.183149,-0.175176,-0.147386
80.317555,0.194476,-0.173005,-0.278798
80.357536,0.133880,-0.189951,-0.227590
80.377553,0.126678,-0.160109,-0.178275
80.417535,0.193341,-0.183833,0.066257
80.457549,0.160870,-0.230782,0.300000
80.487548,0.131853,-0.162579,0.486295
80.527546,0.215029,-0.196746,0.212560
80.557544,0.182490,-0.167950,0.335600
80.587543,0.177190,-0.185008,0.363287
80.617542,0.151293,-0.232895,0.304265
80.647540,0.214525,-0.130703,0.322975
80.677539,0.176957,-0.100702,0.187454
80.707537,0.171251,-0.112359,0.073066
80.737536,0.196711,-0.133735,0.066531
80.787533,0.200274,-0.079403,0.126663
80.827531,0.209696,-0.144640,0.504539
80.857500,0.191017,-0.201212,0.732883
80.887503,0.199812,-0.222612,0.850295
80.927508,0.217628,-0.293006,0.837082
80.957506,0.201145,-0.292885,0.666132
80.987505,0.171750,-0.220178,0.365232
81.017504,0.111340,-0.159112,0.032221
81.057492,0.068272,-0.132269,-0.158876
81.087518,0.096272,-0.113184,-0.075437
81.127517,0.122227,-0.127175,0.075133
81.137506,0.131826,-0.132533,0.086854
81.187515,0.063528,-0.118486,0.018566
81.217512,0.080474,-0.066242,-0.071970
81.257510,0.055167,-0.034225,-0.026913
81.277511,0.038323,-0.027819,0.029755
81.317506,0.100071,-0.072758,0.079711
81.357506,0.083106,-0.007663,0.027718
81.377509,0.087255,0.027546,-0.050087
81.427503,0.073101,0.048963,-0.179250
81.457498,0.068962,0.052153,-0.142904
81.487500,0.083466,0.034053,-0.256264
81.527490,0.054685,0.030923,-0.263754
81.547497,0.066233,0.015990,-0.301235
81.587477,0.029868,0.117434,-0.473760
81.617486,0.047407,0.137754,-0.685208
81.637493,0.036841,0.166565,-0.691458
81.687490,0.065029,0.133351,-0.484365
81.727489,0.066689,0.103382,-0.250537
81.757487,0.065703,0.134305,-0.259983
81.787464,0.053731,0.183443,-0.403952
81.817455,0.081605,0.200415,-0.360059
81.847458,0.078883,0.122476,-0.111534
81.887481,0.119643,0.076467,0.042062
81.907459,0.124076,0.124430,0.044461
81.957457,0.115295,0.103159,-0.018693
81.987456,0.096069,0.082945,-0.015594
82.007475,0.083177,0.084060,-0.055118
82.057453,0.071199,0.049997,-0.104452
82.097470,0.091292,0.017973,-0.113180
82.117451,0.097602,0.027572,-0.150525
82.157468,0.089046,0.028664,-0.164407
82.177466,0.166684,-0.018430,-0.139041
82.217464,0.078843,0.036081,-0.024395
82.257463,0.117343,0.009299,0.063063
82.287444,0.089825,-0.023733,0.156912
82.317459,0.128022,-0.016330,0.103521
82.347453,0.104548,-0.013069,0.083243
82.377456,0.100553,0.015697,0.137894
82.427453,0.108079,-0.004599,0.185862
82.457452,0.084504,-0.005588,0.136713
82.487449,0.086524,0.024293,0.065289
82.517430,0.077964,0.080853,-0.014533
82.557433,0.089431,0.043534,-0.053205
82.587444,0.072565,0.031810,0.017253
82.617429,0.101241,-0.008776,0.040529
82.647427,0.104354,-0.023704,0.030830
82.687416,0.092353,-0.040696,-0.046190
82.717415,0.089296,-0.015111,-0.030021
82.747438,0.096627,-0.027908,-0.055736
82.777413,0.081691,-0.036403,-0.055780
82.807424,0.075561,-0.024698,0.016942
82.847415,0.090213,-0.035356,-0.055776
82.877432,0.076346,-0.021454,-0.080271
82.927423,0.075279,-0.002251,-0.103671
82.957417,0.081670,-0.002266,-0.102604
82.987407,0.079627,0.005192,-0.082262
83.017427,0.090363,0.008353,-0.056604
83.057424,0.090484,0.008333,-0.016003
83.087423,0.091656,-0.006621,0.037338
83.117421,0.100148,-0.021569,0.045802
83.157418,0.086233,-0.015126,0.013786
83.177418,0.104252,-0.017287,-0.010804
83.227415,0.071282,0.010515,-0.030945
83.257414,0.091377,0.004092,-0.068381
83.287413,0.092492,0.007282,-0.055542
83.317411,0.084055,-0.021513,0.005204
83.357385,0.111844,-0.027993,0.047900
83.387384,0.062019,-0.034317,0.128012
83.417383,0.076565,-0.063091,0.041305
83.457403,0.073723,-0.043942,0.136504
83.497402,0.101990,-0.052460,-0.014203
83.527401,0.077566,-0.037482,-0.009841
83.557400,0.090451,-0.046063,0.036053
83.587392,0.088368,-0.040732,0.045699
83.617396,0.087316,-0.022598,0.028704
83.647396,0.120131,-0.021574,-0.036475
83.677395,0.091404,-0.005512,-0.048133
83.707391,0.092442,-0.022577,-0.037542
83.747390,0.095738,-0.035402,0.011536
83.787383,0.094822,-0.057824,0.087274
83.817381,0.093934,-0.023718,0.106694
83.857380,0.100998,-0.047137,0.003991
83.887379,0.113622,-0.046073,-0.048361
83.917378,0.107395,-0.087686,0.053984
83.957360,0.103601,-0.090954,0.213168
83.987354,0.105735,-0.050426,0.167447
84.017407,0.105600,-0.032270,0.101302
84.057404,0.105821,-0.032307,0.175025
84.077378,0.107013,-0.033397,0.218826
84.127400,0.106226,-0.008907,0.283069
84.137374,0.112580,-0.018516,0.283014
84.187398,0.111590,-0.023859,0.313971
84.217397,0.095502,-0.001403,0.248922
84.257397,0.096201,-0.003478,0.129242
84.287376,0.105892,-0.023785,0.188962
84.317394,0.108062,-0.070731,0.257085
84.357390,0.121067,-0.107065,0.375482
84.397385,0.110646,-0.127345,0.474740
84.427386,0.111581,-0.136926,0.442633
84.457385,0.108209,-0.134756,0.380675
84.487384,0.105705,-0.136822,0.257791
84.517383,0.097861,-0.132474,0.122122
84.547380,0.084626,-0.120635,-0.044490
84.577379,0.071391,-0.104530,-0.216421
84.607378,0.068848,-0.080989,-0.381903
84.647375,0.051676,-0.072394,-0.437412
84.697344,0.035164,-0.111911,-0.216453
84.727362,0.048548,-0.136574,0.015265
84.737371,0.028514,-0.135495,0.079383
84.787342,0.048178,-0.090820,0.193950
84.827366,0.061150,-0.077015,0.243172
84.857364,0.095699,-0.048370,0.369400
84.887333,0.082258,-0.046273,0.500836
84.917363,0.119968,-0.072031,0.679119
84.947361,0.160830,-0.123390,0.873287
84.987345,0.198374,-0.129920,0.973678
85.007358,0.197962,-0.149052,0.858179
85.057334,0.150334,-0.091216,0.530489
85.087354,0.174807,-0.161669,0.607026
85.117352,0.206041,-0.163932,0.728811
85.157331,0.192274,-0.193780,0.788484
85.187349,0.179632,-0.243908,0.891852
85.217339,0.224685,-0.260065,1.022106
85.257346,0.248820,-0.320862,0.974753
85.287344,0.240011,-0.315461,0.871144
85.317343,0.177607,-0.272546,0.604279
85.347341,0.129985,-0.247778,0.317009
85.397331,0.140711,-0.263640,0.005997
85.427337,0.034151,-0.206677,-0.444557
85.457336,0.125256,-0.185472,-0.623964
85.487334,0.132728,-0.191892,-0.610111
85.517308,0.109793,-0.225880,-0.763082
85.557309,0.078591,-0.157663,-0.594951
85.587308,0.035709,-0.122318,-0.733647
85.617307,0.027878,0.029231,-1.036256
85.657327,0.006613,0.012207,-1.006427
85.687303,0.039215,-0.016776,-0.752300
85.727323,0.037242,0.098230,-0.478141
85.757321,0.018374,0.053423,-0.326661
85.787315,0.101757,-0.020421,-0.129421
85.817318,0.122214,-0.097306,0.035764
85.847317,0.055440,-0.056671,0.090495
85.877316,0.124066,-0.063130,-0.096538
85.927314,0.053595,0.011729,-0.249969
85.937312,0.076808,0.011712,-0.320493
85.987309,0.073698,0.084239,-0.376722
86.017309,0.135913,0.092557,-0.232449
86.047307,0.113871,0.043487,-0.069238
86.087305,0.092712,0.154447,-0.153032
86.117302,0.117674,0.154488,-0.350703
86.157301,0.103257,0.102348,-0.482408
86.187283,0.104005,0.159999,-0.655182
86.207299,0.041396,0.188906,-0.618681
86.257296,0.058455,0.217664,-0.644170
86.287295,0.078867,0.236789,-0.605605
86.327293,0.081762,0.252657,-0.368319
86.357292,0.116386,0.245021,-0.174977
86.377291,0.131752,0.206510,0.023542
86.407289,0.127611,0.205259,0.419936
86.457287,0.198417,0.219770,0.937135
86.487285,0.208735,0.187625,1.220099
86.527283,0.250152,0.139374,1.595923
86.557282,0.234757,0.057179,1.883960
86.587280,0.177483,0.033805,1.985350
86.617276,0.201518,0.001825,1.870842
86.657249,0.183247,-0.005573,1.822725
86.687248,0.187944,-0.090815,1.712204
86.717247,0.206742,-0.088664,1.587201
86.757263,0.165764,-0.108754,1.437515
86.787259,0.247816,-0.101483,1.451426
86.817258,0.250092,-0.083378,1.479305
86.857257,0.300367,-0.117664,1.596635
86.887265,0.300668,-0.141181,1.724722
86.927263,0.343338,-0.177557,1.793962
86.957262,0.389967,-0.252294,1.807430
86.987261,0.409791,-0.284273,1.708951
87.017259,0.423123,-0.300219,1.557138
87.047257,0.433932,-0.342762,1.304744
87.087240,0.365545,-0.299901,1.173575
87.107255,0.403547,-0.279665,1.040119
87.157244,0.357886,-0.366876,0.827026
87.187250,0.368360,-0.271936,0.658728
87.217249,0.357929,-0.338974,0.453217
87.257246,0.449959,-0.322016,0.232117
87.277247,0.293081,-0.291911,0.432122
87.317218,0.299278,-0.335802,0.774856
87.347221,0.284988,-0.317738,0.959803
87.387240,0.211044,-0.400869,1.253191
87.407233,0.240203,-0.345535,1.326144
87.457237,0.390867,-0.334054,1.135985
87.487236,0.321017,-0.424459,1.026521
87.517234,0.530374,-0.371531,0.832302
87.557213,0.472438,-0.433196,0.757184
87.577231,0.023602,-0.520625,0.664923
87.607229,0.589090,-0.412940,0.220899
87.657227,0.356213,-0.338863,0.235252
87.697222,0.131164,-0.436252,-0.137056
87.727221,0.155601,-0.361631,-0.241361
87.737224,0.183897,-0.201793,-0.222325
87.787219,0.009064,-0.207764,-0.287493
87.827219,0.106207,-0.136556,-0.286056
87.857218,0.190701,-0.157076,-0.135535
87.887212,0.156404,-0.115536,0.096558
87.917214,-0.053647,-0.149148,0.036589
87.947213,0.025238,-0.132274,0.048416
87.987210,0.164528,-0.018596,0.208209
88.027208,0.134339,-0.043000,0.110852
88.037208,0.152640,0.025194,0.098401
88.087206,0.161198,0.061435,0.069750
88.117205,0.098191,0.042408,0.029058
88.157202,0.144660,0.013565,-0.064068
88.187200,0.083326,-0.015167,0.109949
88.217199,0.249553,0.146399,0.320216
88.257196,0.157714,0.064341,0.680928
88.297195,0.139410,-0.023228,1.070440
88.327194,0.151958,0.001140,1.321660
88.337181,0.169486,0.020220,1.463866
88.387191,0.181932,-0.118423,1.514388
88.427159,0.298737,-0.024941,1.655911
88.457174,0.224707,-0.200684,1.672058
88.477187,0.255843,-0.085595,1.624602
88.507185,0.376353,-0.201992,1.469007
88.557182,0.364864,-0.338188,0.990657
88.587180,0.425959,-0.290216,0.714174
88.627179,0.402209,-0.347535,0.316396
88.657178,0.606273,-0.123039,0.288733
88.687176,0.210791,-0.295942,0.334889
88.717173,0.264175,-0.301420,0.390407
88.747149,0.141349,-0.264988,0.576549
88.777148,0.347929,-0.228123,0.540375
88.817152,0.142196,-0.400423,0.661281
88.857162,0.376167,-0.372105,0.537439
88.887144,0.194057,-0.429114,0.234794
88.927141,0.329280,-0.368443,-0.191222
88.937146,0.327057,-0.375889,-0.213700
88.987161,0.065464,-0.340154,-0.143991
89.017176,0.286275,-0.180717,-0.192316
89.057174,0.104331,-0.192061,-0.136775
89.077173,0.050142,-0.204758,-0.084478
89.117171,0.000648,-0.066067,-0.062334
89.147169,0.088378,-0.048201,0.057411
89.187168,0.098337,-0.067660,0.561617
89.227166,0.167626,-0.211832,0.756337
89.257164,0.225040,-0.079854,0.931208
89.287163,0.291775,-0.087415,0.825373
89.327158,0.211278,-0.061703,0.936653
89.347160,0.137560,-0.218298,1.035177
89.387155,0.286870,-0.215475,1.114224
89.417153,0.284366,-0.196382,1.322680
89.447155,0.276411,-0.352018,1.335716
89.497153,0.409654,-0.432169,1.123688
89.527151,0.328465,-0.440475,1.043527
89.557149,0.233211,-0.609608,0.719944
89.587133,0.347301,-0.647050,0.462211
89.617147,0.100853,-0.652814,0.304105
89.647145,0.359100,-0.686208,-0.174811
89.677143,0.214700,-0.427812,-0.340037
89.707120,0.109595,-0.460518,-0.556022
89.757120,-0.032490,-0.387760,-0.443399
89.797123,0.102517,-0.234601,-0.337880
89.827110,0.022107,-0.249438,-0.149893
89.857107,0.092534,-0.216554,-0.136907
89.887122,0.013161,-0.056452,-0.161651
89.917117,0.095542,-0.115195,-0.316921
89.957113,0.066277,-0.138687,-0.106556
89.977111,0.092881,-0.148344,-0.100205
90.007111,0.053189,-0.102339,-0.252733
90.047125,-0.031462,-0.102060,-0.432213
90.087111,0.057181,0.060899,-0.531774
90.117096,0.004435,0.100580,-0.769811
90.147095,0.043570,0.169694,-0.581390
90.177095,0.070115,0.216405,-0.304408
90.227090,0.172944,0.338741,-0.241789
90.247113,0.096823,0.127795,-0.171343
90.277096,0.245653,0.180658,0.044742
90.317087,0.112847,0.208469,0.463764
90.347086,0.160727,0.207299,0.454130
90.397106,0.116624,0.146496,0.730538
90.407083,0.131621,0.149648,0.757264
90.457105,0.240512,0.164289,0.836385
90.487104,0.146904,0.026883,1.025838
90.527078,0.104631,-0.101968,0.925773
90.547100,0.116034,-0.093409,0.812560
90.587076,0.086617,-0.140167,0.643493
90.617096,0.109476,-0.203060,0.527747
90.657093,0.128067,-0.246742,0.386466
90.687093,0.051654,-0.313636,0.191656
90.727089,0.064605,-0.278494,0.208941
90.757090,0.134894,-0.276521,0.212141
90.787088,0.166711,-0.297906,0.194920
90.817086,0.130852,-0.285081,0.294366
90.847081,0.164035,-0.361811,0.086655
90.887082,0.130726,-0.269952,-0.121183
90.917081,0.193761,-0.317955,-0.349045
90.967076,0.180774,-0.270957,-0.473793
90.997076,0.077993,-0.280232,-0.652253
91.027073,0.094064,-0.201350,-0.710589
91.037076,0.063195,-0.203416,-0.705251
91.097072,0.034530,-0.062737,-0.485436
91.127071,0.085067,-0.026665,-0.362376
91.157070,0.156258,-0.004576,-0.081266
91.187068,0.113954,0.023206,-0.018063
91.217066,0.071546,0.035005,0.029024
91.257065,0.001528,0.038321,0.110262
91.297063,-0.012248,-0.074727,0.263503
91.327061,0.110728,-0.135718,0.156292
91.357059,0.045332,0.062732,0.131755
91.387058,0.165030,0.101856,0.235583
91.427060,0.051567,0.057234,0.442646
91.457028,0.147446,0.036743,0.484181
91.487039,0.012421,0.031681,0.555772
91.517044,0.085861,-0.059148,0.652486
91.557050,-0.006546,-0.116403,0.438500
91.587047,0.178248,-0.039940,0.192062
91.627046,0.084876,-0.132410,0.052675
91.657045,0.074412,-0.212418,0.207165
91.687043,0.182480,-0.183773,-0.005327
91.717041,0.085038,-0.109862,-0.275219
91.747040,-0.020292,-0.060570,-0.305909
91.777037,0.063590,-0.135389,-0.296724
91.817018,-0.029098,-0.092679,-0.009050
91.847035,0.140986,-0.045016,-0.156277
91.897007,0.084991,-0.017227,-0.042853
91.927006,0.145312,-0.096237,-0.074288
91.957005,0.135090,0.084877,0.213059
91.967028,0.177111,0.009141,0.111128
92.027025,0.134938,0.119036,0.122427
92.057024,0.209123,-0.044101,-0.159493
92.087022,0.086278,-0.025800,0.041508
92.117021,0.111265,-0.086564,-0.077432
92.157008,0.013481,-0.036238,-0.078200
92.177017,0.082300,-0.035263,-0.209632
92.227017,0.015305,-0.014859,-0.205230
92.257015,0.118327,-0.043849,-0.257769
92.287013,0.037988,0.038371,-0.158999
92.317011,-0.016204,0.134477,-0.234319
92.357004,0.051513,0.139728,-0.382823
92.387003,0.059347,0.159915,-0.279073
92.417001,0.152095,0.206621,-0.294865
92.447000,0.125866,0.205549,-0.163444
92.486995,0.214517,0.226463,0.260831
92.517002,0.144123,0.118731,0.701531
92.546999,0.212877,0.106742,0.919415
92.586999,0.021106,0.028259,0.971384
92.616996,0.057956,-0.113625,0.997307
92.646995,0.201158,-0.184260,0.899654
92.676975,0.213617,-0.191703,0.802380
92.706991,-0.291240,-0.379341,0.963875
92.746989,0.338651,-0.427097,-0.193683
92.796982,-0.112516,-0.351809,0.524846
92.826985,0.199274,-0.323332,-0.279625
92.856983,0.118554,-0.171889,-0.033027
92.886976,0.306928,-0.404661,-0.146540
92.926981,0.454048,-0.247154,-0.267514
92.956980,-0.108645,0.018385,-0.035132
92.986978,0.163823,-0.076796,-0.671456
93.016976,0.098368,0.114196,-0.706719
93.066960,0.171999,-0.052049,-1.170295
93.076970,0.038506,0.035610,-1.050113
93.126945,0.262441,0.123410,-0.683201
93.156956,0.262466,0.200032,-0.408185
93.186965,0.126301,0.322812,-0.154251
93.216949,0.178961,0.236212,0.109171
93.256938,0.148610,0.320112,0.899234
93.286935,0.084406,0.165640,0.972124
93.316934,0.048090,0.108139,1.000665
93.356960,0.031801,0.001560,1.018247
93.376932,0.081633,0.066550,0.872213
93.426956,0.038258,-0.079359,0.779533
93.456955,0.040496,-0.144275,0.535566
93.486954,0.088620,-0.329846,0.466153
93.526926,0.510285,-0.045820,-0.210861
93.546951,0.482427,-0.474186,-0.482461
93.586924,0.107744,-0.427842,0.210247
93.616947,0.013208,-0.226954,-0.303626
93.656945,0.039843,-0.232175,-0.647706
93.696943,-0.022200,-0.252255,-0.720458
93.726941,0.088747,-0.033870,-0.903059
93.756940,0.021343,0.010069,-1.063071
93.786939,0.058194,0.245442,-0.763685
93.816938,0.231213,0.042470,-0.706076
93.846936,0.104184,0.322647,0.282755
93.876916,-0.209917,0.062192,0.229043
93.916933,0.079286,-0.031369,0.557547
93.956923,0.151840,-0.040091,0.618384
93.986922,0.283996,0.070701,0.176618
94.016936,0.216423,0.098668,-0.020878
94.056935,0.077146,-0.084522,0.260222
94.086934,0.322347,-0.105392,0.388265
94.126937,0.564321,-0.372304,0.080091
94.156936,-0.020283,-0.227150,0.246640
94.186934,-0.043477,-0.074424,-0.209818
94.216933,-0.134974,0.052706,-0.334107
94.256930,-0.109134,-0.015492,-0.515059
94.286929,-0.064866,0.113376,-0.459869
94.326927,-0.095234,0.148386,0.025413
94.356926,0.035367,0.052150,0.016305
94.386924,0.031362,0.126785,0.014579
94.426922,0.114222,0.106188,0.330712
94.456924,0.059035,0.036948,0.471382
94.486902,0.242033,0.051492,0.408379
94.516900,0.140471,0.084681,0.588087
94.556915,0.319408,-0.004092,0.355700
94.596914,0.296600,-0.159703,0.386904
94.626911,0.026601,-0.065300,0.425952
94.656911,0.208736,-0.191239,-0.117563
94.686910,0.141361,-0.138946,0.078269
94.716908,0.287601,-0.087961,-0.213176
94.746907,0.152663,-0.077037,-0.130812
94.776905,0.008990,-0.077966,0.248521
94.806903,0.067050,-0.101481,0.108410
94.846877,0.338681,-0.031712,0.068127
94.886870,0.159835,-0.094249,0.151166
94.916870,0.162862,-0.083561,0.082842
94.956867,0.058132,-0.121663,-0.001751
94.966871,0.064536,-0.096079,-0.026187
95.026861,-0.044053,-0.133171,0.021716
95.056890,-0.021410,-0.148027,-0.221981
95.086890,0.023324,-0.014795,-0.371912
95.116888,-0.117725,-0.018836,-0.179577
95.156887,0.034749,-0.045882,-0.076121
95.176885,0.071058,-0.123850,0.050589
95.226884,0.178766,-0.174254,0.165680
95.256882,0.126120,-0.104898,0.282536
95.286881,0.164636,-0.086707,-0.032570
95.316879,0.191580,-0.015353,-0.006541
95.346877,0.259631,-0.091226,0.050723
95.386865,0.091791,-0.147446,0.245983
95.416864,0.105338,-0.186895,0.193408
95.446862,-0.007215,-0.110958,0.208811
95.496870,-0.142707,-0.059408,0.058473
95.526869,-0.154854,0.049493,-0.213384
95.556868,-0.089616,0.006806,-0.423053
95.586866,0.076315,0.010727,-0.483973
95.616864,0.076414,-0.002090,-0.435963
95.646863,0.186427,0.087207,-0.424814
95.676862,0.254614,0.093447,-0.417316
95.706861,0.217957,0.122230,-0.247264
95.756857,0.239674,0.211713,-0.210449
95.796827,0.215780,0.225536,-0.027660
95.806856,0.334924,0.129283,0.048712
95.856831,0.187026,0.126050,0.797722
95.886830,0.124265,0.010979,0.950964
95.926850,0.168261,-0.105269,0.844536
95.956848,0.021150,-0.063308,0.736887
95.976826,-0.034922,-0.050266,0.485883
96.016846,-0.008209,-0.182435,0.315264
96.046844,-0.052089,-0.218567,0.281954
96.086820,0.198746,-0.271151,-0.160739
96.126823,0.025360,-0.229187,-0.154056
96.156839,0.102632,-0.375423,-0.135646
96.186837,-0.066784,-0.434930,0.248714
96.216836,-0.115588,-0.414407,-0.072769
96.256832,0.052381,-0.370833,-0.566200
96.286807,0.231410,0.572229,-0.545032
96.316827,0.294375,-0.251784,-0.960935
96.356829,-0.144102,-0.107176,-0.352079
96.386827,0.223293,-0.162239,-0.623859
96.416822,0.280673,-0.213725,-0.246988
96.446822,0.509130,-0.329366,-0.266911
96.486805,0.706920,-0.197676,-0.148703
96.526821,-0.057249,-0.334500,-0.240092
96.556820,-0.023509,-0.423773,-0.958599
96.586818,0.197896,-0.099273,-0.644876
96.616818,0.091785,-0.134295,-0.482637
96.656789,-0.009376,0.079989,-0.024133
96.696789,0.096730,-0.117527,0.082671
96.726804,0.298352,-0.238230,-0.359316
96.756794,0.013138,-0.096807,-0.478139
96.786795,-0.119782,0.111467,-0.662875
96.826806,0.183841,0.222932,-1.090788
96.856806,0.049029,0.279703,-1.019926
96.876790,0.294623,0.353877,-1.226858
96.916803,0.215040,0.426371,-0.864232
96.956786,0.223350,0.560614,-0.734212
96.996784,0.342753,0.572945,-0.342046
97.026784,0.235289,0.665801,-0.069052
97.036798,0.202506,0.633837,0.042969
97.086781,0.183041,0.668781,0.613725
97.126793,0.293245,0.508442,0.979301
97.156792,0.117528,0.371241,1.127105
97.186791,0.100323,0.417175,1.017310
97.216789,0.219373,0.270979,0.764321
97.256787,-0.003540,0.340704,0.911136
97.286785,0.301164,0.356162,0.600226
97.326784,0.183174,0.086874,0.267550
97.356783,0.153045,0.022993,0.236221
97.386782,-0.030799,0.119350,0.243205
97.416781,0.117080,-0.036524,0.028620
97.456750,-0.041962,-0.095835,-0.034708
97.476778,0.020267,0.042616,-0.037167
97.516761,0.040938,0.059739,-0.265729
97.556742,0.156794,-0.103692,-0.142713
97.596772,0.011054,0.021242,0.111234
97.626770,-0.061170,0.173736,0.349289
97.656770,0.192296,0.066662,0.137084
97.686769,0.169644,0.218947,0.573860
97.716755,0.038347,0.053962,0.654187
97.746765,0.265299,-0.034936,0.455979
97.776763,0.161793,0.024894,0.666820
97.806762,0.255345,0.030040,0.612334
97.856741,0.161813,-0.057244,0.768941
97.876759,-0.000754,-0.149735,0.989643
97.926747,0.082980,-0.259555,0.634290
97.956745,0.112566,-0.294960,0.955696
97.966754,0.104396,-0.348158,0.778040
98.016743,0.036617,-0.356424,0.553633
98.056750,0.169402,-0.351164,0.088849
98.076741,0.271886,-0.356597,-0.170842
98.116747,0.103811,-0.306110,-0.178004
98.156737,0.160296,-0.417006,-0.386977
98.176745,0.111624,-0.316678,-0.401373
98.226733,-0.002428,-0.247066,-0.523836
98.256741,0.018088,-0.179958,-0.506377
98.286740,0.019509,-0.144820,-0.428186
98.316739,0.169420,-0.112054,-0.539162
98.356714,0.078445,0.044681,-0.167522
98.386715,0.051967,0.030851,-0.104552
98.416711,0.128881,0.045569,-0.037176
98.456732,0.121905,0.015639,0.157121
98.486731,0.059019,-0.016209,0.171920
98.516728,0.054764,-0.015133,0.171926
98.546727,0.040399,0.018944,0.313154
98.586726,0.235437,-0.037886,0.087350
98.626724,0.179725,0.018656,0.261833
98.656722,0.182836,-0.123031,0.043087
98.686722,0.052782,-0.065287,0.279566
98.716721,0.167332,-0.032405,0.093807
98.756710,0.064020,-0.034300,0.085273
98.796696,0.036598,-0.031081,0.168638
98.826710,0.001438,-0.078824,-0.139334
98.836715,0.146171,0.036063,-0.296869
98.886707,0.102677,0.023335,-0.228547
98.926711,0.043811,-0.013816,-0.287503
98.956689,0.030834,0.079939,-0.107483
98.976704,0.127034,0.111662,-0.019717
99.016707,-0.008426,0.089430,0.282568
99.056704,0.083729,0.029567,0.192466
99.086703,0.051758,0.126537,0.425932
99.126698,0.269429,0.097345,0.259039
99.136694,0.140362,0.050740,0.235308
99.186695,0.113878,0.160646,0.152578
99.226697,0.027130,0.044656,0.118839
99.256696,0.252259,0.066472,0.250326
99.286694,0.080617,0.072228,0.170264
99.316694,0.052853,-0.077032,0.316898
99.356691,0.305066,-0.045578,0.236876
99.386690,0.229228,-0.113636,0.235451
99.426689,0.192134,-0.039979,0.207017
99.456666,0.149926,0.109389,0.160835
99.486686,0.078662,0.006069,0.305595
99.516684,-0.220576,0.065243,0.577382
99.556665,0.014488,0.136222,0.413172
99.586664,0.027478,0.084956,0.544309
99.616667,0.148713,0.088974,0.490879
99.656678,0.172196,0.028110,0.581358
99.696677,0.088743,-0.096437,0.591378
99.726677,0.248494,-0.006311,0.855746
99.756674,0.320541,0.031986,0.692464
99.786673,0.038415,-0.002584,0.742559
99.816671,0.162137,-0.177659,0.661433
99.846663,0.309428,-0.178941,0.426328
99.876669,0.239003,-0.247025,0.454819
99.906668,0.223300,-0.223567,0.516923
99.956643,0.292710,-0.317449,0.337957
99.976664,-0.128274,-0.232340,0.457124
100.016661,0.277663,-0.287350,-0.099944
100.056660,0.151981,-0.411862,0.030822
100.096655,0.201942,-0.185824,-0.259638
100.126642,0.076626,-0.256888,-0.424542
100.156640,0.195145,-0.274276,-0.293245
100.186631,0.191235,-0.279658,-0.170400
100.216638,0.089624,-0.138726,-0.132205
100.256653,-0.064207,-0.084070,-0.010063
100.286651,0.164731,-0.042988,-0.051562
100.326650,0.092152,-0.077105,0.284834
100.356649,0.073174,-0.130427,0.409556
100.366623,0.051928,-0.122921,0.417081
100.426625,0.114205,-0.138972,0.254572
100.456645,0.160471,-0.139155,0.415898
100.486634,0.103626,-0.182693,0.328058
100.516626,0.066704,-0.249868,0.521090
100.556640,0.027460,-0.389365,0.378226
100.596638,0.205164,-0.386372,-0.017131
100.626637,0.123425,-0.355295,0.029003
100.656637,0.129459,-0.314716,-0.136387
100.686635,0.126371,-0.256059,-0.169186
100.716633,-0.714668,-0.542187,0.199129
100.746633,0.992219,-0.303737,-0.398306
100.776631,0.170596,-0.285945,-0.299714
100.806630,0.059628,-0.269114,0.669502
100.856627,0.092850,-0.312609,0.080531
100.896608,0.111880,-0.340363,0.067553
100.906625,0.173667,-0.396867,-0.211642
100.956623,-0.330478,-0.265685,-0.183021
100.986622,-0.136322,-0.286100,-0.746260
101.016621,-0.095316,-0.280774,-0.925742
101.056619,-0.009406,-0.257445,-1.064534
101.086619,0.113806,-0.154381,-0.928302
101.116618,-0.006359,-0.102042,-0.582872
101.146616,0.123843,-0.088518,-0.497352
101.176615,0.131546,-0.022617,-0.134782
101.226613,0.162215,-0.049319,-0.173401
101.256612,0.237406,-0.161424,-0.178309
101.286611,0.253839,-0.119936,-0.072307
101.316609,0.139937,-0.077016,-0.113714
101.346609,0.103634,-0.142877,-0.427127
101.386590,0.230203,-0.097273,-0.525205
101.416579,0.320201,-0.102726,-0.687663
101.446588,-0.037228,-0.106241,-0.575409
101.496601,0.106597,-0.023202,-0.999167
101.526601,0.290522,-0.008638,-1.108114
101.556600,-0.021673,0.086687,-0.582900
101.586599,0.013854,-0.053017,-0.645647
101.616598,0.101454,0.147274,-0.781330
101.646595,0.131890,0.184612,-0.972387
101.676595,0.111958,0.264434,-0.609734
101.706594,0.355519,0.205262,-0.629350
101.756592,0.239450,0.178683,-0.246958
101.796590,0.353358,0.154962,-0.225747
101.806589,0.393677,0.154895,-0.272769
101.856584,0.212979,0.192585,-0.213753
101.886565,0.333114,0.171186,-0.604957
101.926586,0.111564,0.244950,-0.007228
101.956584,0.167538,0.240457,0.201085
101.976585,0.062790,0.114890,0.212172
102.016582,0.049449,0.131905,0.359717
102.056554,0.201424,0.074008,0.332651
102.086579,-0.043946,0.118549,-0.235468
102.126578,0.046466,0.206003,-0.723297
102.156578,0.243105,0.158682,-0.781301
102.186575,-0.085774,0.190161,-0.419909
102.216575,0.009158,0.139960,-0.660612
102.256572,0.114697,0.210102,-0.698716
102.286571,0.090367,0.279465,-0.726109
