time_tick,acc_X_value,acc_Y_value,acc_Z_value
0.011412,0.783830,-3.566889,-9.013144
0.044666,0.803134,-3.496258,-9.118643
0.078072,0.735345,-3.512270,-9.118343
0.111340,0.666210,-3.486531,-9.041576
0.144674,0.678631,-3.480695,-9.087667
0.178012,0.706614,-3.497305,-9.093203
0.211339,0.775599,-3.505536,-9.072852
0.244663,0.869276,-3.529329,-9.064771
0.277999,0.897259,-3.526935,-9.065070
0.311333,0.907584,-3.526186,-9.080035
0.344709,0.903245,-3.501944,-9.071355
0.378017,0.849822,-3.502992,-9.061629
0.411363,0.778742,-3.477552,-9.107719
0.444870,0.803283,-3.475757,-9.094251
0.477535,0.774552,-3.512719,-9.070009
0.511436,0.759438,-3.522745,-9.077491
0.544401,0.728312,-3.533968,-9.060282
0.578477,0.674141,-3.553571,-9.054146
0.611463,0.635085,-3.536212,-9.054895
0.644877,0.620719,-3.536961,-9.059085
0.678228,0.632391,-3.551326,-9.059534
0.712263,0.657232,-3.548633,-9.054146
0.744732,0.729060,-3.536661,-9.057139
0.778050,0.769015,-3.530676,-9.057888
0.811392,0.818397,-3.522445,-9.072253
0.844314,0.835307,-3.514514,-9.073450
0.878107,0.834409,-3.502393,-9.081382
0.911516,0.824233,-3.507780,-9.095598
0.945303,0.819445,-3.491469,-9.076743
0.978139,0.819894,-3.499251,-9.070308
1.011464,0.826777,-3.507032,-9.067914
1.044278,0.820792,-3.513317,-9.085422
1.078605,0.816153,-3.521547,-9.081082
1.111422,0.813309,-3.532322,-9.062078
1.144942,0.802535,-3.535315,-9.070009
1.178127,0.776647,-3.546687,-9.065519
1.211463,0.777545,-3.543844,-9.058187
1.244867,0.738937,-3.528281,-9.066417
1.278811,0.712001,-3.525887,-9.073450
1.311449,0.680875,-3.513916,-9.085422
1.344270,0.661871,-3.513467,-9.069111
1.378270,0.626106,-3.483538,-9.084973
1.411613,0.595729,-3.469472,-9.102930
1.444440,0.608149,-3.464982,-9.093652
1.478215,0.665163,-3.494312,-9.083177
1.511535,0.719783,-3.518255,-9.079137
1.544338,0.790713,-3.539505,-9.078239
1.578206,0.858651,-3.580357,-9.054895
1.611474,0.888729,-3.591580,-9.047113
1.644857,0.916264,-3.616122,-9.049657
1.678072,0.898606,-3.612530,-9.041427
1.711463,0.877357,-3.604001,-9.042325
1.744582,0.820792,-3.578262,-9.055942
1.778219,0.782932,-3.537410,-9.081082
1.811466,0.742528,-3.503890,-9.088864
1.844787,0.620869,-3.446576,-9.099189
1.878126,0.520009,-3.402731,-9.114153
1.911109,0.436508,-3.382080,-9.112058
1.944854,0.426482,-3.411859,-9.115500
1.978124,0.404635,-3.433557,-9.101733
2.011450,0.469131,-3.471118,-9.074199
2.044269,0.548292,-3.497605,-9.070757
2.078125,0.574928,-3.524690,-9.039182
2.111476,0.562957,-3.499550,-9.058336
2.144794,0.604558,-3.546687,-9.135253
2.178120,1.103467,-3.574970,-8.948948
2.211450,0.863440,-3.721022,-8.943111
2.244502,1.265680,-3.985740,-9.275618
2.278229,-0.046389,-3.799135,-8.747378
2.311512,-0.550536,-4.054276,-7.513572
2.344318,0.474218,-4.501409,-9.093203
2.378205,0.581812,-4.137179,-9.491254
2.411414,0.479306,-3.520799,-8.769825
2.444604,1.889093,-3.119307,-8.960171
2.478017,2.697164,-3.040894,-9.236412
2.511365,0.906986,-3.759031,-9.087367
2.544314,2.464619,-4.115031,-8.564664
2.577404,1.988007,-3.682863,-8.844946
2.611636,1.252960,-3.727157,-8.992194
2.644132,2.259160,-3.634079,-8.970047
2.678160,1.369233,-3.430415,-8.922311
2.711445,1.067403,-3.710995,-9.033196
2.744904,1.919919,-3.706955,-9.011049
2.778202,1.404549,-3.488327,-8.957028
2.811473,1.192056,-3.486381,-9.048161
2.844878,1.621232,-3.638568,-8.862454
2.878127,1.059023,-3.673285,-8.952090
2.911445,1.236799,-5.052844,-9.067165
2.945142,1.290221,-7.741329,-8.341846
2.978162,1.085660,-4.961262,-8.683930
3.011447,1.990999,-4.622920,-9.144082
3.044784,1.921715,-3.035956,-8.677794
3.077593,1.043610,-3.122450,-9.052351
3.111896,1.075634,-3.383427,-8.986807
3.144254,1.167514,-3.722518,-8.777157
3.178113,1.365342,-3.513766,-8.772518
3.211554,1.970798,-3.998908,-8.981121
3.244828,2.108768,-4.297147,-8.168709
3.278129,3.428918,-7.052223,-9.188227
3.311483,1.863354,-2.676963,-7.777842
3.344884,1.303091,-6.546280,-8.699642
3.378117,1.706528,-4.464747,-8.124864
3.411605,0.373808,-3.956111,-8.221084
3.444811,0.747766,-4.430628,-9.223692
3.478132,0.031126,-3.596070,-8.629310
3.511840,-1.048249,-2.943028,-9.313478
3.544828,0.186006,-3.744216,-8.059470
3.578102,3.029222,-4.461904,-9.924470
3.611543,-0.063748,-4.691905,-8.830430
3.644638,-0.221621,-5.004958,-7.507287
3.678112,2.565479,-6.353091,-8.082066
3.711802,0.311407,-6.019537,-7.885734
3.744791,1.514536,-6.312987,-7.987492
3.777561,1.949399,-6.400977,-7.399993
3.811554,1.313267,-5.883661,-8.894029
3.844878,1.241438,-5.904761,-8.638438
3.878113,1.622578,-5.702294,-7.815103
3.911450,1.793171,-5.468253,-8.404995
3.944585,0.995724,-5.490549,-7.959808
3.977581,2.020030,-5.385500,-7.787120
4.011338,1.354867,-5.219845,-9.858178
4.044329,0.373808,-5.382058,-9.010750
4.078170,0.602014,-4.661827,-8.119177
4.111460,-0.102655,-3.936807,-8.359354
4.144398,-1.028047,-5.009298,-6.786008
4.178155,-1.851233,-6.447965,-8.285730
4.211359,-2.298965,-4.323185,-8.970496
4.244691,-0.638078,-5.719054,-7.325621
4.278022,2.849351,-7.474964,-9.021225
4.311374,2.342511,-5.460172,-8.834171
4.344708,3.943391,-7.139016,-7.844134
4.378146,5.337465,-7.442043,-9.865810
4.411430,-1.564816,-5.118836,-8.030439
4.444129,1.595194,-4.106202,-5.460172
4.478251,-0.168947,-5.321004,-9.776772
4.511385,-1.933836,-5.416775,-9.938087
4.544176,-3.065735,-4.117875,-8.043757
4.578113,0.292702,-3.024733,-8.983665
4.611382,5.459124,-4.954229,-10.686452
4.644203,0.216683,-2.710483,-9.856382
4.678463,-1.146115,-0.799542,-9.188825
4.711391,0.298388,-4.068193,-10.117509
4.744878,0.155479,-1.969900,-7.894713
4.778240,1.029843,-2.233870,-8.868739
4.811467,5.144425,-8.289621,-8.271364
4.844772,0.588396,-7.123902,-8.521867
4.878100,-0.924344,-2.653918,-9.382463
4.911503,-1.875625,-6.068470,-11.202870
4.944262,-1.181431,-4.133138,-9.738015
4.978159,2.154709,-2.673671,-11.791565
5.010734,1.146115,-3.764867,-8.432380
5.044079,3.209841,-0.743426,-9.763005
5.078120,0.066441,-4.257940,-9.509660
5.111507,-2.124481,-5.498630,-7.678479
5.144110,1.311471,-6.316129,-9.025265
5.178126,0.616679,-1.276155,-9.961282
5.211500,-1.062166,-3.909272,-8.958076
5.244783,0.812262,-5.133801,-10.461987
5.278138,1.085360,-3.954764,-11.843042
5.311503,-0.877057,-4.096176,-8.261787
5.344221,-1.708922,-4.168454,-11.367028
5.378132,-1.188764,-0.988691,-11.522806
5.411451,0.357497,-2.047415,-9.244043
5.444344,-0.014665,-4.238038,-9.562484
5.478128,0.610094,-5.408994,-10.528878
5.511632,0.264120,-3.595770,-10.869315
5.544778,-0.636132,-2.809097,-12.868994
5.578128,-0.100261,-2.038137,-11.458609
5.611450,1.164970,-5.616998,-9.830344
5.644481,-0.667258,-4.824040,-9.643291
5.677325,-1.227671,-3.914659,-9.897983
5.711383,-1.176942,-3.992175,-10.678970
5.744738,-0.094125,-2.542134,-9.753877
5.778058,0.738638,-4.524305,-9.344454
5.811484,1.451986,-4.717943,-9.571462
5.844828,0.403587,-4.205865,-7.768115
5.878117,-0.047736,-4.131193,-9.190172
5.911453,0.888729,-5.155200,-9.906513
5.944723,2.566526,-2.242250,-11.342486
5.978206,1.061268,-4.508443,-8.273908
6.011388,0.029031,-1.283338,-11.067892
6.044189,-1.773269,-0.498311,-10.312494
6.078117,-2.706442,-5.621188,-8.839858
6.116986,0.269657,-1.364295,-8.635894
6.144096,-0.602463,-2.670229,-11.574732
6.178050,4.880754,-3.842981,-15.289469
6.211385,-0.131087,-2.394736,-10.185896
6.244871,-1.752169,0.117919,-6.823269
6.278023,1.242186,-2.491705,-7.879449
6.311448,1.487451,-7.340585,-8.544762
6.344272,-2.676364,-8.646818,-3.107485
6.378035,3.913013,-2.088118,-10.595918
6.411492,-1.030292,-1.537731,-9.119840
6.444729,0.149643,-3.050471,-6.434796
6.478117,0.903245,-4.071934,-8.310571
6.511434,0.866433,-2.268737,-9.656759
6.544211,0.521206,-7.268158,-4.565457
6.578022,1.311022,-5.555794,-5.971203
6.611366,-0.577023,-6.121444,-8.048995
6.644752,4.146307,-2.752383,-8.939221
6.678048,1.717003,-3.741972,-8.990548
6.711363,-0.699281,-2.965025,-9.564878
6.744780,1.448095,-3.977510,-13.376583
6.778061,-1.103168,-0.690901,-13.317474
6.811445,0.717837,-1.917974,-11.602716
6.844189,1.786288,-4.389925,-12.489949
6.878048,1.018769,-0.577921,-13.943281
6.911455,0.239279,-8.770723,-6.461283
6.944081,-0.578969,-4.961861,-7.495765
6.978050,-0.922698,-3.440291,-9.550213
7.011448,2.326499,1.773269,-10.158212
7.044077,2.602291,-5.881417,-8.367435
7.078051,0.709308,-6.088672,-10.120352
7.111461,-0.170294,-6.264802,-8.066503
7.144313,-0.575976,-8.211208,-9.435437
7.178018,1.625871,-5.808840,-9.334128
7.211383,0.107593,-6.255674,-9.088115
7.244105,-1.465304,-1.997883,-7.093225
7.278026,2.026764,-2.749839,-10.582899
7.311311,-2.771238,-2.900080,-6.356533
7.344736,0.360939,-2.754627,-9.053698
7.378167,0.314998,-1.142823,-9.489458
7.411108,1.686775,-0.093976,-11.758045
7.444722,-0.394908,-4.680532,-10.342872
7.478107,1.125614,-5.883811,-6.520093
7.511136,2.224742,-8.889839,-8.674951
7.544175,-0.380392,-9.114153,-10.457199
7.578048,-0.753153,-3.264012,-9.854736
7.611369,-0.954572,-6.471609,-9.784105
7.644119,1.246825,-1.491641,-10.480693
7.678114,-0.218179,-8.877568,-11.322883
7.710874,-0.994527,-3.238722,-10.250841
7.744719,1.293364,-4.340543,-12.039374
7.779513,-3.146393,-7.402687,-5.330282
7.811368,-0.334452,-3.504488,-7.192738
7.843734,2.925969,-7.528237,-6.564836
7.878171,-2.580593,-5.807643,-8.941765
7.910388,-2.103232,-1.355915,-8.329725
7.944716,-1.351276,-3.575718,-9.681450
7.977560,0.110287,-3.160609,-8.734659
8.011362,-2.220103,-5.296762,-10.192181
8.043754,-3.001838,-0.336397,-13.594164
8.077173,2.228932,-1.537581,-9.738613
8.111357,-3.189490,-5.756764,-8.308476
8.143743,-3.364722,0.324276,-9.365254
8.178117,3.038350,0.017658,-10.000488
8.210374,-0.834858,-2.694770,-9.717514
8.244825,-4.000255,-5.172857,-7.561009
8.277066,-1.758903,-6.141945,-10.299325
8.310405,4.858009,-1.613450,-12.252465
8.345078,1.844649,-4.901704,-7.966542
8.377077,2.768544,-4.342339,-7.925240
8.411451,1.988455,-3.758432,-8.525608
8.444197,-0.932126,-4.029286,-8.488496
8.478026,5.024112,-1.137586,-10.976759
8.510487,0.123904,-1.291718,-10.459443
8.544308,-1.424002,-6.255973,-8.016373
8.577161,3.049125,-7.780236,-6.757875
8.610503,-1.019368,-6.740218,-8.618686
8.644778,-2.337722,-3.924237,-7.138417
8.678050,0.832314,-1.779853,-9.632816
8.711369,-1.008893,1.002009,-9.496341
8.745621,-0.376651,-5.440718,-5.699301
8.777234,-2.261404,-4.351467,-8.810827
8.810631,0.367822,-7.317091,-9.873142
8.844780,0.514024,-7.209348,-7.228203
8.877920,-0.833960,-6.035699,-10.527082
8.911450,-0.226110,-3.864679,-8.151201
8.946729,-0.085446,-3.297382,-7.557268
8.977171,1.657894,-3.395249,-7.912820
9.010549,0.437556,-4.924600,-10.207445
9.044178,0.465689,-2.751485,-9.915641
9.078313,1.619586,-3.147889,-8.009938
9.110453,1.503912,-4.904847,-8.754861
9.144168,0.561909,-1.633802,-10.381779
9.178117,1.400957,-0.354354,-11.918312
9.210813,0.441297,-0.368571,-9.177153
9.243885,-1.000962,-4.344883,-9.868354
9.277470,1.124567,-0.791611,-9.696414
9.310982,0.203514,-6.555558,-7.491724
9.344740,1.026700,-3.704710,-9.344454
9.377456,0.824084,-4.843493,-7.990036
9.410559,-1.285732,-3.477403,-6.917096
9.443967,1.364295,-6.268393,-7.077812
9.478064,0.291804,1.556885,-11.483600
9.511522,0.428727,-4.870429,-9.279958
9.544157,-2.613664,-5.575846,-10.625697
9.578091,-0.236585,-3.902987,-5.871091
9.611461,1.417119,-3.883833,-8.048845
9.643942,0.884390,-1.341399,-10.567935
9.678049,1.145068,-3.030719,-9.220998
9.711536,0.795352,-2.047116,-8.092990
9.744074,-0.234191,-1.412180,-8.751419
9.777444,-0.391017,-4.837508,-7.780086
9.811688,1.453482,-1.923810,-11.013721
9.844384,0.146949,-4.069390,-9.248982
9.878101,0.310958,-6.607185,-8.517826
9.911498,-1.368335,-5.249774,-8.773416
9.944171,0.840245,-1.939073,-8.556883
9.977424,0.218628,-3.434605,-9.437681
10.010901,1.527854,-3.938303,-9.537643
10.044298,-0.019454,-6.221854,-8.956280
10.078064,0.087840,-2.686390,-9.953800
10.110647,-1.242036,-4.803838,-6.494654
10.144048,1.116935,-2.521633,-10.544740
10.178052,0.577023,-0.544251,-10.006474
10.211370,0.710954,-1.376865,-10.889966
10.244083,-1.315212,-0.771709,-8.936826
10.277540,-0.046689,-4.904398,-10.145792
10.310427,-0.160866,-5.585124,-8.412029
10.344717,-0.131835,-2.149920,-9.292528
10.377873,-0.504147,-5.139637,-8.965109
10.411543,-1.413677,-2.503975,-7.416304
10.444095,-0.515670,-1.412779,-11.153188
10.477473,-2.157402,-3.310102,-8.748576
10.511383,-0.192890,-1.399162,-9.093054
10.547189,-1.051840,-1.671661,-9.503674
10.578088,0.257536,-2.397729,-9.221298
10.611477,0.329364,-3.832954,-9.843513
10.644173,-0.246911,-1.989353,-10.702314
10.677593,-0.159669,-2.986125,-8.862155
10.711400,2.884368,-0.750459,-7.785474
10.744916,1.778955,-5.435780,-8.391677
10.777155,-1.730022,-2.612766,-8.331970
10.811383,2.104429,-4.023899,-11.422246
10.844786,0.722925,-2.890354,-11.069089
10.877128,-1.381055,-1.504211,-8.078923
10.910816,0.753901,-4.969343,-9.804456
10.944226,0.171790,-1.718500,-9.303751
10.977120,0.203814,-4.996877,-8.058572
11.011385,-1.560028,-1.497327,-10.364719
11.044709,2.208131,-4.539568,-9.303901
11.078051,-0.419000,-4.604962,-8.144766
11.111549,-0.059408,-2.397579,-9.641794
11.144198,0.226559,-3.854952,-9.802212
11.177524,-1.111398,0.120612,-11.350268
11.211087,0.803583,-4.324083,-7.285666
11.244093,0.605455,-3.954165,-8.235899
11.278050,0.461648,-1.898370,-9.604683
11.310790,-0.716042,-4.919063,-7.820490
11.344701,-0.166104,-3.123797,-10.768606
11.377491,0.137672,-2.544529,-10.621806
11.410854,-1.459617,-0.369468,-9.251526
11.444137,-0.099662,-2.885864,-8.781647
11.478052,0.140664,-4.048740,-7.955019
11.511385,0.193937,-3.473512,-8.939370
11.544138,0.225063,-5.886355,-10.619112
11.577570,-0.981059,-2.912650,-5.554297
11.610554,-1.502266,-4.445144,-9.021674
11.644100,0.316794,-3.530825,-9.412691
11.678051,1.092992,-2.919983,-11.324230
11.711071,0.856856,-5.653660,-8.064558
11.744331,-0.613985,-3.650091,-9.701951
11.778125,0.611591,-3.780130,-8.104363
11.810852,-0.823635,-3.855251,-8.172750
11.844343,1.924558,-3.641411,-7.959808
11.878116,0.553380,-3.635126,-9.682198
11.910778,-0.133930,-0.759887,-8.772668
11.944744,0.332507,-3.763370,-8.834321
11.977839,-0.831715,-3.123647,-8.494931
12.010708,-0.635683,-1.510646,-9.334727
12.044304,-0.097418,-4.671404,-9.740858
12.078379,-0.514024,-4.484350,-8.562569
12.110598,-0.243020,-1.625871,-8.183524
12.144268,0.591688,-2.273825,-8.868290
12.178118,-0.735794,-4.226216,-8.928446
12.210531,-0.522852,-4.630701,-8.373271
12.244688,-0.006435,-4.084804,-7.803431
12.277665,-0.727115,-4.218584,-8.372373
12.310905,-0.706614,-3.508379,-9.185533
12.344239,0.882744,-4.227713,-8.484605
12.377561,-0.656783,-5.766641,-8.624222
12.410983,-0.435311,-5.333574,-7.796996
12.444685,-0.373509,-2.029458,-7.909378
12.477649,-0.077365,-2.037538,-10.795242
12.510973,-1.389135,-4.910833,-8.813521
12.544235,1.455727,-4.866389,-7.512226
12.577683,1.150455,-6.871155,-9.490356
12.610421,0.917611,-2.634464,-9.887658
12.644330,-0.606204,-1.801402,-9.667982
12.677700,-1.293364,-1.914382,-8.097329
12.711358,1.781350,-2.600196,-9.016137
12.744134,1.314763,-7.477209,-7.535570
12.777722,1.575591,-4.161870,-7.488732
12.811431,-0.596177,-4.048740,-10.269247
12.844303,-0.408825,-3.022189,-9.972056
12.878269,4.029585,-7.480801,-6.993563
12.911037,1.015926,-6.026271,-6.356832
12.944396,1.349181,-5.189168,-10.499248
12.977748,-2.020928,-3.472016,-8.843150
13.011105,1.098379,-3.011714,-8.351274
13.044243,-0.566698,-2.319166,-7.533625
13.077914,0.629548,-5.286436,-11.456365
13.110384,0.897558,-4.515027,-9.305696
13.144453,1.414425,-1.831779,-12.179140
13.177920,0.906387,-1.911090,-9.191219
13.210690,-0.372012,-3.060049,-8.904952
13.244456,0.785925,-2.815831,-10.142949
13.278368,0.948437,-3.391957,-8.779252
13.310516,-0.048933,-4.056222,-10.205799
13.344487,-2.259459,-1.490893,-11.268114
13.377987,1.389135,-3.359484,-7.600216
13.410517,0.174783,-6.679612,-8.355314
13.444346,-0.484394,-1.734062,-12.235855
13.478235,-0.965796,-2.467163,-10.892211
13.510432,0.987195,-5.228525,-10.072616
13.544126,-1.440014,-3.066932,-5.234810
13.578080,0.554427,-3.240967,-7.123304
13.611043,-0.420197,-1.401107,-10.545638
13.644709,-0.423938,-4.297895,-7.272797
13.678105,1.280644,-2.936892,-8.278397
13.711238,0.955770,-3.350655,-7.812709
13.744186,-0.188400,-3.325814,-7.733248
13.778011,0.520159,-1.108256,-13.175912
13.817601,-0.990636,-5.210418,-11.470730
13.844405,1.381653,-5.546516,-7.204111
13.878048,-0.373808,-0.084698,-12.006452
13.911383,-0.609047,-2.870002,-9.111460
13.944559,0.156227,-7.116719,-9.413888
13.978105,-1.305635,-3.532621,-8.666122
14.011159,0.048035,-2.247637,-8.018168
14.044384,1.843003,-4.198233,-6.463528
14.078066,0.673393,-4.627708,-11.345180
14.110820,0.004639,-2.820470,-9.175058
14.144395,-0.406730,-2.478386,-6.848858
14.178125,-0.204562,-2.107122,-9.954847
14.210698,0.408675,-3.097010,-9.674417
14.244491,-0.564902,-2.563982,-10.513016
14.278108,0.553978,-3.448671,-6.103337
14.310611,-0.319338,-3.262516,-7.577470
14.344453,-0.012121,-6.513808,-8.232906
14.378119,-0.503848,-3.643357,-11.321686
14.410501,0.087840,-2.709435,-11.710608
14.444479,-2.092906,-3.879344,-5.186625
14.478230,-0.726367,-2.996600,-13.431352
14.510436,0.623712,-2.869404,-11.652247
14.544647,0.262324,-3.961498,-9.661996
14.578203,-2.862370,-3.954016,-10.929472
14.610777,2.523728,-3.792252,-7.534822
14.644667,-0.530185,-0.954423,-8.185020
14.678116,-0.608748,-0.894566,-10.740772
14.710939,-1.076232,-2.347150,-10.343919
14.744390,0.076916,-3.620761,-7.487983
14.778116,1.089101,-5.554297,-8.299347
14.811598,0.104451,-4.732309,-10.924534
14.844829,-0.148147,-2.479434,-9.720207
14.877771,-0.487836,-6.496000,-7.622512
14.911363,3.040745,-4.160523,-5.063019
14.944179,3.677775,-9.836629,-8.012332
14.977457,-0.088738,-6.594316,-5.918678
15.011392,1.566013,-4.968744,-10.182604
15.044361,2.019581,-3.008123,-10.715034
15.078136,0.091881,-0.033071,-11.076870
15.110862,0.419898,-1.628115,-10.478298
15.144281,1.070097,-1.757706,-7.478706
15.178166,0.371563,0.438603,-8.328827
15.210833,0.032622,-1.460814,-13.676767
15.244393,0.385480,-6.052159,-12.077084
15.278115,-0.708559,0.528838,-8.639486
15.310798,0.221771,-1.703236,-7.845630
15.344483,-0.055518,-5.597694,-5.610413
15.378140,1.810979,-1.942814,-14.776493
15.410727,1.638441,-3.054661,-11.540314
15.444459,1.103018,-3.672836,-9.466862
15.478118,1.399910,-2.441275,-7.604555
15.510545,-0.262025,-2.897387,-8.613298
15.544393,1.211060,-4.931034,-8.399908
15.578139,0.189448,-4.945849,-8.526505
15.610531,0.809269,-3.402132,-10.652483
15.644468,1.289922,-2.057591,-11.947044
15.678551,1.870686,-2.525674,-12.349583
15.710557,-2.757770,-3.712492,-8.646220
15.744152,0.751657,-4.397557,-7.743274
15.778139,-2.361964,-4.750864,-5.442813
15.810798,-1.697250,-3.563597,-11.661226
15.844454,-2.727392,-4.913975,-6.951513
15.878117,-0.730707,-3.538307,-6.351595
15.911073,-0.493822,-1.966159,-9.967268
15.944452,3.419491,-4.512932,-9.950208
15.978137,0.518812,4.268565,-13.319120
16.017643,0.214588,-7.416604,-6.350996
16.044130,-0.959660,-2.574906,-8.992494
16.078057,0.791013,-4.760441,-8.815765
16.111414,2.653020,-4.454422,-9.555001
16.144503,0.770661,-6.419533,-5.271622
16.178135,1.115439,-4.230256,-6.999100
16.210891,0.094574,-2.719910,-11.536274
16.244466,1.941767,-1.880413,-10.513614
16.278138,0.478109,-3.920645,-9.439627
16.310847,-0.510582,-2.872097,-8.878915
16.344499,-1.568258,-6.898540,-7.025886
16.378350,-0.304074,-7.418848,-6.815189
16.410821,2.018234,-0.279533,-17.511367
16.444432,-0.421694,-1.080871,-9.733077
16.478139,-0.132434,-0.751956,-10.895653
16.510625,1.774167,-8.650559,-2.971460
16.544258,-1.500470,-0.158622,-11.448883
16.578266,1.221236,-0.848625,-6.270488
16.610583,-1.715058,-5.872289,-7.824680
16.644571,1.228868,-5.738957,-8.251013
16.678112,-0.183762,-0.284322,-18.216186
16.710418,0.750908,-5.531552,-11.822391
16.744219,-0.561311,-5.452989,-3.927678
16.778824,-0.881996,-2.663644,-14.244213
16.811161,0.080658,-5.858372,-9.324252
16.844689,-0.434264,-3.324019,-12.437424
16.878477,-1.499572,-4.225169,-8.119477
16.911118,3.176471,1.132199,-9.990163
16.944186,4.526101,-1.987857,-13.122639
16.978123,-3.729252,-2.194364,-3.937106
17.011833,2.835883,-3.709649,-11.210052
17.044699,4.158577,-3.743917,-10.322071
17.078049,0.402839,-4.476718,-13.594762
17.110644,2.093954,-3.428918,-12.691069
17.144320,0.401791,-4.629953,-5.805548
17.178048,-1.598486,-6.413248,-9.704495
17.211424,-3.533369,-2.104429,-12.734615
17.244508,-2.056992,-1.693060,-9.746245
17.278140,1.761297,-6.885371,-6.448414
17.310817,-3.932766,-9.018382,-12.328783
17.344560,-3.618366,-5.526464,-5.884260
17.378115,0.387426,2.894992,-6.737225
17.410787,-0.230151,-3.977809,-11.971885
17.444188,-0.775749,-7.406578,-8.028943
17.478116,-1.714759,-5.526314,-12.992150
17.510642,3.421137,-1.907948,-10.478448
17.544238,4.235045,-5.085167,-2.748043
17.578144,2.865962,-8.634847,-6.997454
17.610459,4.163067,-8.393024,-7.761680
17.644132,1.325238,-1.952541,-10.514063
17.678114,1.406344,-2.260057,-9.184486
17.710616,2.865363,-2.435140,-14.564748
17.744386,5.187822,-3.450018,-13.675420
17.778136,3.034609,-4.052630,-12.390436
17.810591,0.732652,-0.153234,-7.996171
17.844388,-0.227008,-4.340094,-7.753749
17.878136,-3.812753,-3.570181,-11.620822
17.910456,-0.389820,-1.689170,-9.849050
17.944458,0.038758,-4.185962,-11.015517
17.978113,-2.113707,-0.453717,-7.537216
18.011254,-4.887488,-3.155820,-7.120011
18.044817,-1.698148,-4.462203,-8.371475
18.078049,1.168262,-2.764055,-7.945891
18.111066,-1.656547,-0.712600,-10.086982
18.144164,-1.294411,0.440100,-9.275169
18.177477,-0.560263,-5.155499,-8.921563
18.211361,1.919919,-4.306425,-8.384794
18.244376,-1.090598,-4.348923,-10.134419
18.278112,-1.509598,-3.771302,-9.976097
18.311381,-1.050194,-2.779318,-8.997581
18.344101,-0.630146,-2.843066,-9.519835
18.377936,0.655137,-2.528218,-8.292015
18.410771,-0.259780,-4.085701,-9.279658
18.444384,-0.837103,-3.598913,-10.533966
18.478120,-0.339689,-3.152378,-9.603935
18.510848,1.622429,-2.851596,-9.979090
18.544788,0.353606,-1.327782,-11.011476
18.578085,-0.505045,-2.029907,-8.348879
18.611465,0.435611,-2.987472,-11.513977
18.644059,-0.047736,-4.497519,-9.439926
18.678061,-0.668754,-3.181559,-7.848773
18.711112,1.172153,-3.090426,-8.942214
18.744176,-1.285433,-2.880028,-10.724162
18.778042,0.647206,-2.312283,-8.287376
18.811405,1.431634,-2.914446,-8.806038
18.844393,2.410000,-3.485334,-7.591387
18.878126,0.301979,-3.873059,-8.874425
18.910525,0.952926,-3.020992,-9.347896
18.944453,-0.514921,-2.567274,-9.190621
18.978138,1.330775,-2.720658,-8.070244
19.011148,2.103980,-2.658407,-9.622640
19.044457,1.348283,-4.275449,-7.862091
19.078118,2.150220,-3.239022,-9.248533
19.111406,-0.728312,-4.790669,-7.343129
19.144458,-0.781735,-3.793598,-7.293597
19.178137,1.091945,-3.118559,-8.541021
19.212068,1.257749,-4.275748,-9.223991
19.244212,-0.607251,-3.833553,-31.749445
19.278139,-7.830815,-10.128284,-0.275193
19.317880,1.408290,-4.534181,-10.683609
19.344076,3.688998,-5.206976,-10.733589
19.378102,-2.271281,0.320535,-6.520542
19.411375,5.446405,-1.309226,-11.180124
19.444722,-2.060434,-0.560712,-8.337207
19.478114,0.414960,-13.331690,-13.597456
19.510807,1.876223,-5.054939,-10.813499
19.544494,-4.019410,-8.758602,-5.509853
19.578260,2.515199,-1.597289,-5.300503
19.610746,1.958826,-4.677988,-8.506154
19.644399,-1.329129,-4.340843,-7.204560
19.678110,1.602975,-2.062678,-13.835388
19.710619,0.088140,-2.104578,-7.398647
19.744106,-2.836632,-1.908247,-9.788444
19.778111,0.558767,-4.653896,-10.178564
19.810600,-1.687524,-3.480246,-7.917608
19.844448,-0.682671,-2.525075,-7.773652
19.878156,2.874491,-6.484029,-9.419874
19.910454,3.502543,-7.253942,-10.041790
19.944202,1.117833,-1.066505,-10.110326
19.978368,-2.607528,-1.262388,-4.889733
20.011245,2.149920,-1.222284,-8.433278
20.044307,0.232994,-2.489310,-7.489330
20.078326,0.134679,-6.339175,-7.472271
20.111130,-1.076681,-1.627816,-15.449886
20.144452,-2.733977,-7.121059,-1.896126
20.178140,-3.038201,-6.216767,-9.240751
20.211330,0.971781,0.442195,-7.760783
20.244189,-0.510133,-5.496984,-4.308220
20.278138,-0.029929,-5.019922,-14.880046
20.312152,-0.366925,-4.894522,-1.272863
20.344235,1.418017,-14.648698,-12.542024
20.378115,-3.019046,-2.317969,-9.167576
20.417791,-2.311086,-4.834814,-7.040102
20.444445,1.195498,-0.679379,-14.664410
20.478047,3.299926,-4.400700,-1.308777
20.511395,-1.231262,-0.912972,-8.291416
20.544680,-0.505344,-1.245778,-13.281859
20.578378,0.783231,-5.759009,-6.931461
20.610772,-0.420347,-5.641389,-2.680853
20.644176,3.448821,-4.197634,-17.710392
20.678128,-2.701354,-8.422504,-8.359504
20.710699,2.051605,-3.037303,-9.068812
20.744432,4.468338,-3.660715,-17.847914
20.778138,-4.132689,-5.763797,-5.551903
20.810603,0.785625,-4.642373,-6.834942
20.844386,-1.216896,-4.711209,-8.454378
20.878140,-0.763927,-1.933237,-3.998160
20.910577,-0.155329,-4.557226,-11.244021
20.944485,-1.814271,-5.094444,-9.683694
20.978137,2.355829,-0.159669,-5.028003
21.010480,1.352174,-6.760719,-11.021502
21.044790,-1.145517,-3.333746,-8.513636
21.078169,-0.184959,-2.114305,-12.851486
21.111261,1.607913,-9.454890,-7.084845
21.144182,-0.230450,-4.322736,-6.226194
21.178114,0.787870,-1.967805,-9.566674
21.211147,-0.354504,-6.705201,-7.912371
21.244451,0.870473,-2.519239,-11.993284
21.278225,1.311022,-4.746076,-8.384644
21.312624,0.940656,-3.546388,-9.465665
21.344392,0.740134,-2.101586,-8.895675
21.378051,-1.822202,-2.835734,-10.169884
21.411117,-0.261277,-2.369596,-10.608039
21.444172,-1.657745,-5.125720,-10.884429
21.478117,0.419599,-2.376180,-8.160928
21.518272,1.663730,-3.520949,-10.060346
21.544393,0.636880,-2.419577,-12.744192
21.577619,0.258733,-0.523750,-11.632794
21.611412,-0.015563,-9.913396,-11.019407
21.644525,-1.100923,-6.278719,-4.005642
21.677877,0.179572,-5.341954,-10.269995
21.711387,-0.256787,-7.291502,-9.647780
21.744397,-1.301894,-3.726708,-6.325407
21.778176,-0.165655,-3.936956,-7.741778
21.810651,-0.915216,-6.065777,-8.155092
21.844075,-1.785989,-2.858629,-12.410488
21.877746,1.220787,-6.844219,-12.489799
21.910496,-1.670764,0.414810,-12.081723
21.944260,-4.922205,3.601307,-8.111995
21.978120,-1.019368,-4.405937,-11.042452
22.010454,-1.211809,-3.445978,-9.745497
22.044297,-0.138719,-3.362327,-9.290283
22.078037,-0.512826,-5.100879,-8.457370
22.111373,-3.634378,-1.734811,-10.079500
22.144456,-2.144234,-0.888729,-10.439840
22.177560,0.879302,-3.470819,-6.804714
22.210975,0.788319,-2.037389,-9.299860
22.244482,0.433665,-3.589934,-11.301035
22.278050,-0.409273,-0.955171,-6.514855
22.311392,1.044208,-3.612231,-8.646070
22.344139,1.028795,-6.898390,-10.272689
22.378029,-0.184360,-3.243212,-12.574646
22.411381,0.651994,-0.558467,-10.845373
22.444479,0.683270,-5.879022,-9.897085
22.478274,-0.053572,-4.864443,-8.354715
22.511160,1.606417,-1.885950,-13.716721
22.544329,0.711552,-4.185364,-10.194126
22.577253,-1.556586,-4.061310,-8.922161
22.610486,1.409188,-5.727135,-10.259371
22.644723,0.134828,-1.079973,-9.893045
22.678168,1.482513,-2.234917,-10.615222
22.710690,-0.106546,-1.186220,-14.797892
22.744461,0.603959,-2.555453,-7.687158
22.778067,-4.034673,-0.273248,4.818054
22.811381,-4.184316,7.900699,-5.326840
22.844440,0.739535,1.979178,-13.252828
22.878050,2.551562,-3.989032,-8.637391
22.911365,-2.340715,-0.903843,-15.062460
22.944461,0.142909,-0.965047,-10.771150
22.978204,-0.137522,-7.589142,-6.267346
23.011367,-3.687501,-7.059855,-5.044613
23.044115,-0.326970,-0.752405,-8.937126
23.078103,1.257001,-1.563619,-10.920344
23.111300,1.545662,-1.398264,-7.989587
23.144727,2.922078,-3.263264,-15.148206
23.178021,-1.228120,-5.977488,-9.822114
23.211339,0.440250,-2.277715,-11.325128
23.243924,2.056543,-3.314442,-11.898410
23.278008,-0.845483,-6.119499,-6.968573
23.310958,1.769229,-4.661228,-10.880838
23.344689,-3.363375,-2.138547,-9.717963
23.378014,0.196631,3.660117,-7.975969
23.411333,1.645474,-4.207062,-12.792227
23.444193,1.409188,-3.616421,-10.297230
23.478084,1.293514,-2.046218,-10.050170
23.511341,1.009192,-1.254158,-11.045595
23.544668,-0.307666,-5.522573,-11.854116
23.578033,0.692099,-2.048462,-10.627492
23.611365,1.000064,0.687909,-7.070330
23.644687,-0.372761,-6.951364,-5.726985
23.678102,0.309462,-4.468039,-8.744685
23.711359,1.396468,-1.095386,-11.809522
23.744431,-0.941404,-2.596155,-9.780663
23.778027,0.405682,-4.383790,-9.560389
23.811455,1.688870,-2.750886,-8.065755
23.844008,0.541109,-2.780516,-11.420151
23.878014,0.071380,-0.665013,-0.683270
23.911343,0.833062,-8.328378,-4.592692
23.944351,-2.373636,0.129591,-12.078730
23.978013,1.251314,3.687801,-16.786347
24.011344,1.999230,-9.568769,-11.503053
24.044675,-1.977083,-6.931611,-4.194791
24.078015,1.886100,-9.471800,-9.440824
24.110924,0.150690,-7.686260,-5.163430
24.144672,1.393625,-5.474089,-5.364400
24.178028,3.255632,-3.369061,-12.992300
24.211353,-0.525845,0.628051,-6.623496
24.244675,-0.575976,-2.548569,-9.485417
24.278001,-0.279533,-7.277585,-13.486122
24.311356,-2.847705,1.368485,-10.750349
24.344427,0.667856,3.090426,-5.669522
24.377599,0.817799,-6.258816,-8.874874
24.411347,1.795416,-4.021804,-9.488710
24.444591,-1.644426,-1.746932,-6.473105
24.477690,0.108641,-3.759480,-11.132537
24.511368,-1.186968,-5.579886,-12.338211
24.544837,-1.647120,-2.053401,-6.174118
24.578065,-0.993180,-5.615501,-6.948670
24.611346,-1.770276,-2.724399,-10.128583
24.644675,0.257386,-2.874192,-12.568960
24.678019,-0.677434,-3.583350,-7.190044
24.711380,1.538030,-2.373487,-13.177259
24.744676,0.285968,-1.454978,-7.038905
24.778036,3.262516,-3.943092,-9.202443
24.811467,0.098166,-2.938090,-10.507928
24.844723,1.211809,-2.340116,-12.354522
24.877590,3.516609,-1.861409,-14.199021
24.911339,-2.332634,2.429902,-10.180060
24.944680,1.539227,-5.106266,-7.435309
24.977998,0.384882,-6.130572,-6.186090
25.011374,0.615332,-5.058680,-7.507736
25.044722,-0.318590,-2.736670,-7.402238
25.078059,1.407542,-4.183418,-10.165844
25.111351,-0.347621,-4.996129,-10.769653
25.144149,0.558467,-4.947046,-4.567552
25.178005,1.334217,-4.357902,-11.890479
25.211334,0.389521,-4.488690,-11.453222
25.244239,-3.081448,-0.740882,-14.482594
25.278087,-1.427594,3.439693,-12.338959
25.310915,1.194450,-6.372096,-9.359568
25.344148,0.156377,-5.382956,-6.373443
25.378093,1.021762,-8.988154,-6.335583
25.411418,0.724721,-1.309376,-7.410468
25.444703,0.672645,-0.341934,-8.927698
25.477257,1.091945,-2.212321,-7.441744
25.511343,-0.963551,-1.804245,-10.037750
25.544697,-0.265167,-5.589763,-10.199065
25.578102,0.306768,-5.205779,-6.977551
25.611431,0.136325,-5.088459,-7.698232
25.644709,-2.800568,-5.813928,-9.922824
25.678054,0.691650,-1.328380,-9.065370
25.711349,1.815618,-3.218520,-9.214713
25.744295,1.161229,-3.376543,-10.933063
25.778084,0.832613,-5.548312,-7.531230
25.811377,2.213668,-5.702294,-4.848880
25.844053,4.061908,2.754927,-15.792419
25.877273,-0.187203,-10.004080,-4.073580
25.911452,1.359955,-4.361044,-9.241799
25.944720,-1.191008,-7.510430,-5.827695
25.978004,0.648852,-8.246673,-10.014705
26.010498,2.397130,-9.065669,-6.384516
26.044050,1.701590,-6.993264,-12.590209
26.078032,-1.816067,-9.849050,-7.896958
26.111363,-1.198640,-8.378509,-6.152869
26.144325,2.874940,-6.222752,-11.488239
26.178015,-1.226474,-5.807493,-9.339516
26.211465,-3.693786,-2.761062,-14.054765
26.244137,2.235366,-3.766962,-11.611844
26.277042,-1.586365,-5.556542,-3.500897
26.311339,-1.251614,1.014579,-1.673008
26.344413,0.875711,0.510432,-15.634246
26.378025,1.937427,-4.570694,-11.909184
26.411402,-2.427807,-4.261382,-9.804157
26.444418,0.941254,-1.509598,-6.441081
26.478031,2.092607,-0.686562,-7.545596
26.511429,-2.026465,-4.873422,-9.866259
26.544798,-2.382465,-6.575012,-7.782032
26.577997,-0.578520,-2.220252,-11.206311
26.611341,2.964427,1.100474,-11.912776
26.644413,-0.420347,-3.754691,-9.071804
26.678110,1.697699,-7.103551,-6.563639
26.711343,-0.637479,-2.908909,-11.215589
26.744423,-0.527192,-0.895014,-11.406384
26.777271,2.198105,-7.142009,-7.938259
26.811397,2.876586,-7.069881,-8.642030
26.844198,2.483325,-7.212191,-6.955255
26.878023,2.039484,-4.485847,-7.778889
26.911343,1.851233,-2.452498,-10.993369
26.944449,2.146927,-3.381332,-9.636108
26.978010,0.428428,0.456860,-10.709048
27.011362,2.092906,-5.895633,-7.720678
27.044441,0.610543,-3.364871,-11.866237
27.078736,-0.079161,-0.906088,-8.403649
27.111391,1.155244,-2.566077,-11.020455
27.144229,-2.303155,-2.332485,-3.321325
27.178037,0.227906,-5.446255,-8.081318
27.211413,-2.494398,-6.247892,-8.493135
27.244152,2.364059,2.714074,-17.222856
27.277147,-0.420796,0.210248,-7.741329
27.310796,-0.636282,-1.647569,-6.889112
27.344745,0.009278,-0.874064,-7.898604
27.378153,-1.613450,-2.465218,-7.704217
27.411347,2.862221,-3.056607,-5.052544
27.444752,-3.323420,4.437961,-1.701141
27.478058,2.358672,-8.014278,-2.288789
27.511371,-6.077599,-1.354867,-4.075077
27.544724,-2.506220,0.583308,-6.709990
27.578083,-1.575890,-0.726367,-9.108766
27.611376,-2.455940,6.085380,-7.076465
27.644735,2.225191,14.482295,-14.658873
27.678096,-0.921052,2.264547,-9.608574
27.711568,4.199131,8.896423,-9.168623
27.744762,0.853563,0.251400,-7.016010
27.778032,4.956623,0.525546,-6.503482
27.811367,2.303304,2.635961,-6.367307
27.844411,-3.076060,-23.647177,-13.897490
27.878174,0.772008,-2.908760,-18.972631
27.911359,-2.982085,-2.240903,-8.174994
27.944458,-0.801937,-1.954187,-12.754368
27.978062,1.038372,-7.402238,-4.453075
28.011101,3.141155,-10.807812,-2.351789
28.044434,2.338021,-6.238764,-10.566139
28.078065,2.957394,-2.577749,-10.780727
28.110623,5.019922,-2.780815,-9.832589
28.143795,-1.390482,-5.322500,-3.179763
28.178035,-1.814271,-2.406708,-11.520711
28.211457,0.133182,-1.832079,-10.145642
28.244154,0.171640,-5.564473,-10.462287
28.278116,-4.478364,-2.469109,-14.351956
28.311402,-0.248258,2.804309,-10.075909
28.344133,-0.777395,4.061908,-5.310978
28.378123,1.024605,-4.430179,-5.375923
28.410835,3.864679,-6.895996,-10.130079
28.444338,-0.750160,-0.947090,-14.149638
28.478123,4.739940,-0.019753,-5.798066
28.510717,1.723887,4.167556,-7.556670
28.544268,-1.191457,-5.268030,-9.444565
28.578278,0.108192,-8.109900,-8.959423
28.611370,-0.163560,0.620569,-5.887851
28.644420,0.597973,-5.118836,-7.525245
28.678144,-3.097160,-4.872524,-7.167897
28.710683,1.820855,0.036513,-10.812601
28.744487,-0.674291,-3.269549,-7.486487
28.778134,-1.098679,1.174697,-6.917096
28.811369,-0.316944,-6.017592,-5.265486
28.844733,-0.395357,-2.023771,-7.410319
28.878216,2.418080,-4.342489,-14.061349
28.911248,0.273996,-3.304266,-11.473274
28.944087,0.139767,-6.730491,-8.728523
28.978469,0.522852,-1.440014,-7.124800
29.011383,-3.524091,-0.840245,-7.042197
29.044705,-0.096071,-1.976634,-14.902193
29.078058,0.949335,2.306746,-11.305525
29.111360,-0.916563,-6.859184,-6.999399
29.144456,-0.060755,-8.117681,-7.260676
29.178120,1.523515,-1.877420,-10.222259
29.217558,0.290756,-4.708815,-4.647461
29.244290,0.598572,-6.448713,-8.624222
29.277127,1.399461,-1.244880,-9.212319
29.311398,-2.067317,3.042690,0.493822
29.344841,-8.063660,3.299627,-17.082940
29.378024,-6.059342,-11.802339,-12.324294
29.411370,-0.596776,-16.685787,9.966819
29.444091,1.054683,-9.934047,-13.668836
29.477947,4.301187,14.202911,-19.567312
29.511422,-0.672196,-19.117335,-26.170905
29.544449,6.184444,-0.928385,-27.610022
29.578054,-0.504895,3.691841,-4.738594
29.611496,-4.960514,-4.374213,-8.502712
29.644222,0.859399,-2.330539,-3.736435
29.678019,-3.820534,-1.764290,-7.257683
29.711432,-1.804245,-1.334665,-14.218175
29.743763,4.945550,8.407090,-7.974922
29.778044,2.829299,0.019005,-7.933919
29.811424,-0.151289,-3.622257,-10.417543
29.844853,-0.037860,-5.188420,-2.509812
29.878017,0.270405,-6.203299,-8.254604
29.911354,7.351509,-9.971308,2.237761
29.944167,3.234383,-6.799476,-9.157699
29.978024,6.269591,-2.489161,-8.660286
30.011397,-2.187481,-0.002394,-5.471545
30.044437,1.306832,-4.006690,-15.882653
30.078086,0.386977,-23.376323,22.460658
30.111014,-0.767818,-5.782054,-0.997071
30.144382,-1.743789,-5.617447,-17.356038
30.178051,-2.589721,-0.946192,13.638458
30.211297,-3.225105,-7.086641,1.341399
30.244485,-6.352642,-0.781435,-13.356531
30.277222,-0.063000,-13.505426,-8.935180
30.317330,2.843216,-2.993458,-12.932592
30.344092,3.302171,1.616293,-10.577661
30.378064,-1.003206,-13.156009,-5.336417
30.411382,-0.596926,-13.866514,-8.341247
30.444280,-0.761084,-7.355998,-10.683758
30.478052,0.719034,-0.352858,-8.432679
30.511205,-0.098914,-1.504510,-8.741093
30.544326,2.739364,-5.283892,-9.669478
30.578147,0.490679,-1.794369,-12.244684
30.610519,-1.004703,-1.972743,-8.757255
30.644124,0.047287,-2.371841,-10.290048
30.678119,-0.110287,-3.209692,-13.349198
30.710774,2.347449,-3.097759,-12.813626
30.744107,-1.932639,0.324276,-9.234616
30.778124,1.325088,-3.861536,-8.437468
30.810410,-2.347748,-4.988048,-6.658513
30.844109,-0.479755,-4.310615,-4.445144
30.878124,-2.302107,-9.583434,-6.515604
30.910831,-3.667749,-3.035806,-9.245540
30.944423,-0.477062,-4.048141,-10.801826
30.978050,-1.235751,-3.370707,-8.708172
31.011374,0.674740,-6.775084,-4.763734
31.044406,-0.917012,-3.677625,-7.366174
31.078182,-1.415173,-1.312818,-19.445353
31.111824,4.628905,-2.196010,-6.438687
31.144447,3.224806,-11.202421,-6.015646
31.178119,-1.160331,-9.902472,-10.914807
31.211255,1.157039,-3.452113,-24.146835
31.244441,-6.160950,-0.544102,-9.921926
31.278128,-2.226837,6.921585,-11.572787
31.311319,3.886078,-9.104726,-9.096795
31.344412,-1.191457,-12.952196,-1.589358
31.378119,1.931292,-17.724758,-3.776838
31.417089,-2.157552,6.847661,-28.262315
31.444128,-3.374000,7.717835,1.691714
31.477265,0.038009,0.224614,6.047071
31.511396,0.640921,-9.312879,-10.817838
31.544527,-10.822776,-6.025373,-7.988090
31.578031,7.867478,15.419957,-10.961495
31.611389,-0.787870,2.938688,-4.892127
31.644472,0.741780,2.716019,-11.165608
31.677625,-4.018811,-6.436891,-3.718777
31.711449,0.947539,-6.393196,-8.008741
31.744426,1.711017,-2.417033,-9.005812
31.778124,0.231647,-3.574820,-9.470004
31.811162,-5.836374,-2.152913,-8.812323
31.844174,-0.564902,-1.073090,-12.097734
31.878008,-1.868292,-1.766984,-9.585978
31.911368,1.171555,-1.683334,-6.944929
31.944681,-0.974924,-3.903885,-3.674183
31.978182,-2.997348,-5.285539,-4.518020
32.011356,-1.264333,-2.364807,-14.118363
32.044166,-0.886036,-4.605711,-8.329725
32.078048,0.758839,-7.212191,-7.249004
32.111398,0.835157,-5.576893,-6.219610
32.144554,-1.200286,-1.320749,-11.516820
32.178051,0.121211,-7.345823,-2.585980
32.211359,3.244858,-7.729956,-10.790753
32.244186,1.101222,2.113856,-8.077128
32.278116,4.862648,-1.884005,-9.512054
32.311185,2.689533,-6.535057,-7.354652
32.344206,-2.512206,-2.540189,-9.433791
32.378122,1.806340,-6.041235,-5.357217
32.413122,-4.851125,0.604109,-13.956749
32.444681,2.870451,-2.041279,-10.145343
32.477507,-0.080658,-8.028643,0.042499
32.511458,1.311022,-3.627046,-10.094913
32.544680,3.726109,-3.791803,-18.049334
32.578011,-0.517914,-3.596668,-11.630100
32.611342,0.564453,-7.555921,-12.056732
32.644687,-1.783894,-2.844563,-6.270488
32.678076,0.389072,-12.242439,-6.511114
32.711338,1.978878,4.542112,-13.034948
32.744672,-1.348283,2.242848,-9.005363
32.777227,0.669652,0.279683,-12.830087
32.811333,1.353221,-5.694812,-4.972186
32.844090,-1.478622,-4.726921,-4.677988
32.878018,0.578370,-2.423617,-9.008655
32.911341,-0.504446,-2.676663,-6.229337
32.944278,0.557420,-3.026529,-6.855143
32.978033,-4.140022,5.154451,-14.472718
33.011417,-0.240776,3.658171,-10.205649
33.044791,1.723587,-2.527170,-14.430369
33.078054,-2.183590,2.762708,-11.556775
33.111366,2.333682,-0.606802,-3.816494
33.144574,0.442943,-1.845098,-8.929344
33.178055,2.458484,-3.948928,-15.732562
33.211382,-1.884304,-7.906086,-1.962268
33.244263,0.494869,3.312646,-13.762063
33.278025,0.433965,0.893368,-7.239127
33.311451,3.024434,-9.530460,-1.735260
33.343873,-1.791525,-9.789492,-9.342508
33.378050,4.669907,1.799905,-12.533495
33.411504,0.076019,-4.071036,-11.914422
33.444588,1.134144,-0.692697,-8.308027
33.478045,2.503377,-0.209650,-5.792529
33.511383,0.686711,-4.371220,-7.206954
33.543852,-0.848476,1.483859,-7.179719
33.578026,2.624288,-0.488584,-11.094827
33.611207,-1.251614,-2.333682,-10.095512
33.647766,-0.034568,-3.488177,-8.103315
33.678035,-2.189875,-3.046281,-3.214630
33.711371,-1.135042,0.330561,-11.894669
33.744504,0.801488,-0.296742,-10.032362
33.778120,0.226260,-0.328766,-14.394604
33.810917,1.920967,-2.319017,-11.798598
33.844132,-0.483945,-2.209179,-6.276773
33.878117,0.095323,-5.024112,-6.298472
33.910757,-0.091581,-0.289709,-11.922652
33.944149,0.628351,-6.677368,-12.645727
33.978034,-0.757193,1.062315,-15.560472
34.011375,2.338620,1.620035,-6.213474
34.044545,-2.177604,-0.942302,-20.660154
34.078177,1.481615,4.236242,-21.065986
34.110593,-1.271666,-1.562721,-9.143783
34.144719,-1.621082,1.090149,-6.523385
34.178118,-2.154858,-3.404377,-15.869186
34.210407,-1.654003,-7.015710,-9.318865
34.244381,-3.150732,-0.383236,-3.499251
34.278118,-0.439202,-7.739384,-4.419854
34.310914,0.617576,-4.775406,-11.477464
34.344882,0.184360,-6.294132,-9.100386
34.378065,0.474368,-6.483580,-6.666893
34.411382,2.008059,-1.648766,-13.529668
34.444205,-0.954722,-1.478622,-11.252102
34.477416,3.385372,-4.765080,-10.983343
34.511360,1.068600,-3.093419,-11.244171
34.544228,0.707811,-2.902175,-11.132238
34.578113,-0.547693,-3.012911,-9.811938
34.611200,2.682799,-3.129932,-11.064300
34.644452,-0.296592,-1.727029,-8.916924
34.678842,-0.535572,-1.064560,-15.320445
34.717488,2.990914,-9.384558,-12.578088
34.744382,-3.384923,-3.797489,-7.402537
34.778128,2.669630,-4.258838,-10.043885
34.811363,-1.093441,-2.889755,-11.582065
34.844438,0.657531,-3.425327,-8.317604
34.878206,0.393112,-5.928704,-8.522615
34.910793,-2.473598,0.808371,-7.644211
34.944288,1.493437,-6.914252,-5.085765
34.978107,1.385544,-5.347940,-11.349071
35.011393,-1.350378,-8.139080,-5.696009
35.044518,1.016674,-4.830923,-17.043883
35.078582,-4.242677,2.083778,-7.407476
35.110556,-0.704369,-0.032622,-10.944137
35.144327,-1.237846,-3.252938,-6.897193
35.178244,0.495917,-0.235538,-16.905613
35.211371,1.387489,-12.865702,-4.818054
35.244151,3.049274,-12.246928,-4.720187
35.277945,-0.941104,-1.645175,-11.370619
35.311244,-0.045491,-1.693360,-9.707488
35.344252,-2.963978,-7.226707,-9.375580
35.378118,-1.879964,2.481828,-6.262707
35.411461,3.277929,-1.869040,-6.540594
35.444335,0.926888,-2.034246,-14.579712
35.477525,0.410171,-2.551861,-13.492706
35.511409,-0.382487,-0.380991,-8.744984
35.544762,1.952990,1.099427,-10.368012
35.578131,0.621318,-2.966073,-11.870726
35.611358,0.601415,-4.451279,-11.569495
35.644517,-0.767968,-1.943712,-12.854179
35.678047,1.604921,-8.556284,-1.727777
35.711358,-0.317393,-8.140277,-5.589014
35.744434,-1.583971,-1.459318,-11.592989
35.778020,-0.853264,-0.111933,-14.322925
35.811385,3.362627,1.714908,-9.917437
35.845274,-1.308777,-4.189554,-3.780280
35.878036,1.827739,-3.821282,-3.077856
35.911386,2.010752,-5.412735,-13.439882
35.944221,0.257386,-3.223010,-18.403539
35.978115,2.120740,-2.760463,-3.990678
36.010809,0.679678,-2.198255,-8.687372
36.044199,-3.716233,1.455727,-6.741714
36.078117,1.909594,-2.644041,-14.812407
36.110709,-0.318590,-9.070308,-11.945099
36.144298,-0.144106,-4.999122,-7.346272
36.178118,-2.134507,-0.408525,-6.345759
36.210720,-0.911026,-2.512954,-3.087433
36.244452,-0.580315,-4.289814,-9.300309
36.277836,2.017935,-2.608277,-13.377182
36.310605,-0.749262,-5.825001,-9.484819
36.344523,0.851618,-3.072319,-10.085336
36.378193,-1.063213,0.425734,-6.832398
36.411359,1.183376,-5.306489,-7.140812
36.444112,-1.246675,-5.397322,-14.000295
36.478055,0.346573,-4.109944,-13.603442
36.511375,-0.679828,-4.023300,-9.525971
36.544781,-2.911453,5.917930,-24.219561
36.578059,2.409401,-4.168304,-15.865145
36.611380,-2.819273,-9.734573,-8.738101
36.644868,-2.906216,-6.490912,-9.560538
36.677256,2.103980,-1.892534,-11.542260
36.711462,-1.700542,-19.264584,-7.690151
36.744460,-1.156441,-15.817259,-5.712171
36.778056,-1.620483,3.873208,-9.748340
36.811426,-2.983282,2.302556,-13.796331
36.844399,-1.406344,-1.301295,-6.651330
36.878024,0.791761,-2.157402,-4.584910
36.911399,-0.171940,-3.106139,-8.182327
36.944239,-0.863739,-6.881032,-9.358670
36.978049,0.987195,-2.752383,-6.660608
37.011423,0.191693,-2.204839,-7.921649
37.044904,0.421843,-3.468574,-10.999954
37.078053,-0.581812,-4.515177,-7.265464
37.111588,-0.184809,-0.356749,-11.019707
37.144413,1.012783,-6.618558,-6.564238
37.178049,0.251699,-5.870792,-7.859547
37.211474,-0.310808,-7.149192,-8.037173
37.244419,0.551584,-2.426760,-9.029006
37.278058,-0.314101,-4.862797,-8.569752
37.311519,0.263222,-1.135042,-9.993605
37.344341,0.311706,-6.771343,-7.967290
37.378057,0.733550,-2.669032,-9.795478
37.411436,0.738338,-0.788768,-12.605323
37.444076,0.746120,1.133246,-12.945312
37.478051,-0.754200,0.170892,-6.303859
37.511455,0.434862,-0.277887,-16.206930
37.543820,0.715593,-2.587027,-9.842466
37.578052,-1.123370,-6.219610,-9.633564
37.611818,0.697785,-6.468765,-9.706440
37.644099,-0.125401,-0.980910,-8.586662
37.678067,-1.888943,-6.071912,-6.146434
37.711389,0.633738,-1.799307,-3.702765
37.744471,2.836033,-5.975093,-16.505467
37.778113,-0.506541,-8.904803,-8.767131
37.811406,0.063449,-4.957521,-13.366707
37.844441,-0.553380,-1.632305,-9.552906
37.878107,2.042177,1.348732,-12.258002
37.911950,1.399461,-4.419854,-3.938004
37.943987,0.644213,-6.018490,-9.477037
37.978029,-0.785326,-2.795181,-14.173731
38.011357,1.009791,-4.875666,-8.865297
38.044530,0.278336,-0.694942,-5.868398
38.078244,0.789217,-3.006476,-7.892169
38.111372,-1.778057,-1.347984,-9.525671
38.144452,-0.170892,-8.296055,-12.751674
38.178200,-0.513575,-6.065627,-5.601285
38.210817,1.020266,-4.478065,-7.563403
38.244453,0.205609,-0.309312,-10.134718
38.278105,-2.322459,0.241075,-13.594912
38.311373,2.931954,-0.926290,-8.494781
38.344510,-1.585168,-0.864787,-9.487363
38.378246,-0.019304,-0.865535,-6.230534
38.410939,1.783744,-1.219291,-12.103122
38.443861,-1.685728,-4.858158,-9.971308
38.477878,1.065607,-1.679443,-9.782758
38.511257,0.599619,-1.725832,-5.444609
38.544457,-3.149236,-0.130938,-8.874276
38.578129,1.089251,-2.356727,-9.827501
38.610616,1.078926,-1.781799,-9.201096
38.644398,0.916413,-0.887981,-8.253407
38.678116,0.229103,-4.326327,-7.389518
38.711038,0.935268,-3.599960,-14.858198
38.744844,0.732203,-0.510731,-8.512738
38.777942,1.691115,0.566847,-8.483708
38.811044,1.729723,-1.794369,-10.701416
38.844071,0.829321,-3.575269,-9.992408
38.878037,0.191393,-3.088630,-13.529817
38.911377,-0.178674,-5.793726,-9.314226
38.944431,-1.231861,-5.309631,-9.947066
38.978023,0.836055,-0.567596,-8.438216
39.011161,1.445701,-4.195539,-12.556091
39.044313,0.745820,-0.340887,-11.460255
39.078051,1.393774,-2.599298,-10.637818
39.110713,0.693595,0.064047,-9.325898
39.144421,0.189448,-1.668668,-10.909270
39.178051,-0.193937,-4.938517,-9.211421
39.211378,-1.034631,-4.065649,-9.424064
39.244888,1.312818,-0.638377,-8.354566
39.278039,0.073475,-0.898456,-7.613085
39.311382,-0.955919,-1.477574,-11.331563
39.344781,0.595729,-3.076060,-8.956879
39.378039,-0.732951,-2.766449,-9.382613
39.411386,0.374706,-4.498716,-10.674630
39.444811,-0.357796,-3.338384,-11.218732
39.477975,0.820642,0.774402,-8.828036
39.511132,1.658343,-0.745820,-10.374297
39.544792,0.313951,-4.028687,-8.206419
39.577959,-1.330027,-3.315190,-10.422182
39.611385,0.190346,-1.793171,-10.493712
39.644786,-1.178737,-4.238188,-9.197355
39.677873,-1.984565,-1.986959,-9.893793
39.711386,0.035166,-0.465689,-11.024495
39.744910,0.324576,-2.657958,-8.571997
39.777773,-0.826029,-3.388066,-8.193550
39.811430,-0.646607,0.266664,-9.277563
39.844227,-0.152486,-1.708174,-9.885862
39.877742,0.043995,-1.393475,-8.444950
39.911443,0.070332,-1.671661,-9.423016
39.944183,-0.572684,-1.283188,-10.482638
39.978055,-0.598871,-0.374556,-9.289684
40.011455,-2.097396,-0.787870,-9.321409
40.044061,1.801551,-0.920304,-10.778482
40.078056,-1.289024,-2.346551,-7.237032
40.111448,0.332207,-3.782674,-9.660350
40.143771,-0.477660,-1.804095,-9.709283
40.178052,1.011287,-1.587712,-9.640298
40.211454,0.651246,-1.970498,-8.847939
40.247874,-0.459853,0.143358,-9.514747
40.278028,1.254307,-1.374470,-9.655561
40.311384,0.500855,-1.257001,-10.303067
40.344351,-0.256039,-2.836931,-8.567208
40.378135,1.430886,-1.822651,-8.280044
40.410974,0.908632,-3.150732,-10.758131
40.444350,-1.168562,-1.746632,-8.120973
40.478118,-0.730707,-1.668220,-10.005127
40.510770,0.096370,-2.147825,-8.560325
40.544145,1.474731,-3.855102,-9.414487
40.578050,-2.970263,-2.622792,-9.826603
40.611367,1.179186,-0.313502,-9.686538
40.644456,-2.333682,-3.552524,-9.953201
40.678132,-0.786823,-4.039462,-9.513850
40.710722,-0.041301,-2.572811,-10.509574
40.744295,0.830518,-1.311770,-10.719822
40.778310,0.850571,-0.603660,-9.723350
40.810653,3.161207,-0.399996,-8.821601
40.844389,0.130339,-1.969600,-9.674267
40.878205,2.502030,-2.376480,-8.509446
40.910541,1.672859,-2.365705,-11.359396
40.944785,1.799307,-2.336525,-7.461347
40.977434,1.783445,-3.063939,-10.756036
41.010592,1.679293,-2.492902,-9.531807
41.044716,0.001048,-2.347599,-10.503438
41.078028,-0.945294,-1.205224,-9.678008
41.111396,-0.601714,-2.335777,-10.273886
41.144679,0.024691,-2.034246,-10.029519
41.178025,-0.575227,-1.847941,-9.213666
41.211383,-0.601565,-0.433516,-9.392639
41.244409,-2.066719,-1.268972,-8.139828
41.278132,1.709222,-2.570866,-8.815316
41.314428,1.745136,-5.204881,-8.847041
41.344129,0.743277,-4.931633,-9.845608
41.378041,2.331437,-2.535550,-11.158276
41.411400,0.533926,-1.436123,-9.526719
41.444373,0.435611,0.111185,-10.205499
41.478144,-0.753901,-3.650091,-9.784703
41.511015,-0.890824,-3.549830,-9.230875
41.544392,1.992346,-3.330453,-8.714457
41.578200,0.160866,-4.440505,-8.982168
41.610965,-0.403886,-4.137029,-9.637006
41.644528,0.561460,-2.825708,-9.601091
41.678118,0.526594,-2.960087,-10.100749
41.710895,1.870088,-3.998908,-9.286243
41.744771,2.470156,-2.634165,-10.176918
41.778007,0.975073,-2.452199,-9.260953
41.811346,1.744687,-1.186818,-9.342808
41.844674,3.365021,-1.729723,-11.540314
41.878003,-0.279832,-2.008957,-6.804265
41.911338,2.433194,-2.536448,-10.447173
41.944664,2.736221,-1.900465,-10.643504
41.978021,-1.685429,-1.799008,-9.358371
42.011337,2.257962,-2.401021,-9.686687
42.044659,-3.175124,-1.900465,-10.701117
42.078025,-0.924644,-0.550387,-10.981099
42.111333,-5.793127,-0.583308,-9.805354
42.144419,-5.372780,-3.767860,-6.555109
42.178000,-1.196246,-2.072106,-10.103293
42.211334,1.488947,-3.150283,-9.829596
42.244275,1.909893,-1.720295,-10.992322
42.278028,0.675189,-2.771836,-9.719010
42.311436,-3.581255,-2.810594,-9.132709
42.344146,-1.703086,-2.768095,-9.386952
42.378108,0.120762,-2.847256,-8.960470
42.417668,0.001945,-2.111163,-9.201096
42.444686,-1.881161,-2.597802,-8.742440
42.478111,0.179572,-2.036042,-9.556199
42.511376,0.667408,-3.494013,-9.867306
42.544632,-0.282526,-4.081661,-8.434625
42.579256,1.058425,-3.316088,-7.765721
42.610621,1.595792,-3.648594,-9.244792
42.644769,0.621766,-4.541065,-9.398774
42.678052,1.015926,-2.990614,-9.229827
42.711429,2.440826,-2.956196,-9.765998
42.744674,1.365642,-3.700969,-9.634163
42.778001,1.820107,-3.542647,-9.799368
42.811385,0.408376,-4.010581,-8.790176
42.844754,1.701291,-3.478151,-9.070607
42.878002,0.806127,-3.463636,-8.632153
42.911412,1.551498,-2.986574,-9.352385
42.944514,-0.733999,-2.617854,-9.731430
42.977655,-1.715806,-2.138098,-9.366152
43.011325,-1.669716,-1.994890,-9.662445
43.044698,-1.376865,-3.551027,-9.526569
43.077994,5.669971,-2.384411,-10.020092
43.111426,-1.828936,-4.670805,-8.488496
43.144526,0.745372,-4.352814,-9.191219
43.177743,-0.385480,-3.105540,-9.742354
43.211336,-0.912523,-2.249882,-8.996235
43.244286,2.303753,-3.229594,-9.331734
43.278045,1.765338,-3.599212,-9.874489
43.311403,-2.280409,-2.865363,-9.578495
43.344562,-2.153212,-2.739813,-9.179398
43.377384,0.587049,-2.317820,-9.531507
43.411368,0.670849,-1.893432,-9.437681
43.444225,1.006498,-3.112424,-10.230041
43.477938,-0.649301,-3.855401,-10.062590
43.511381,-1.551947,-3.250843,-10.856895
43.544795,-3.401683,-1.689319,-10.063638
43.578114,-4.643421,-0.664115,-9.028408
43.611250,-1.394373,-1.219440,-9.134954
43.644536,0.734597,-1.142075,-9.039631
43.678375,-1.496579,-1.783295,-8.998479
43.711260,-0.345376,-3.082495,-8.931439
43.744118,1.748578,-4.485697,-9.082878
43.778203,1.074736,-3.650689,-8.937275
43.811115,1.556287,-4.077621,-10.117659
43.844467,0.009128,-2.343259,-9.473596
43.878117,-1.412031,-2.419876,-9.407603
43.911027,1.243832,-2.609025,-9.668431
43.944239,-0.368720,-2.622493,-8.493434
43.978161,-2.454444,-2.796677,-9.741307
44.010981,-1.769528,-2.026315,-9.729934
44.044309,-2.953054,-2.256316,-9.244343
44.078212,-2.084676,-1.819808,-9.756421
44.110937,-1.254158,-2.669630,-9.121187
44.144632,0.692548,-2.248535,-10.024431
44.178210,0.626106,-2.722155,-9.988218
44.210891,-0.158771,-4.100366,-8.686025
44.244231,1.009042,-4.150347,-8.625419
44.278213,3.727307,-4.028987,-9.319463
44.310853,-1.158386,-4.492431,-9.410596
44.344457,0.843238,-4.875367,-9.548417
44.378145,-0.061952,-4.377056,-8.372224
44.410749,0.097717,-4.195839,-7.640619
44.444790,2.888259,-2.745050,-8.704880
44.478145,-0.468083,-2.791739,-11.318544
44.510837,-1.940121,-2.810594,-9.220549
44.544461,-1.667172,-2.074650,-7.177325
44.577471,-1.608512,-2.594509,-8.015774
44.610854,-0.733849,-3.405574,-9.266191
44.644416,0.403886,-4.459061,-9.071355
44.678053,-1.373872,-5.634805,-9.629973
44.711440,0.751956,-3.744665,-9.994353
44.744472,2.745350,-3.004980,-7.729058
44.778130,0.729210,-4.306724,-8.974686
44.811373,-0.455363,-3.426823,-8.509297
44.844520,0.709308,-3.879493,-9.862069
44.878121,1.339604,-6.508271,-9.456237
44.911316,2.073153,-4.778848,-7.615629
44.945018,-0.370067,-5.331030,-6.956452
44.978032,-0.218628,-1.381653,-9.258409
45.010785,0.272500,-3.616122,-7.198724
45.044188,-0.034268,-5.240945,-9.072104
45.078057,-0.503997,-7.720828,-7.612037
45.111448,-1.206122,-6.065328,-6.409058
45.144273,-1.886249,-5.932744,-7.236284
45.178046,0.791910,-1.585168,-10.148336
45.211483,3.837444,0.327119,-10.176918
45.244395,2.704497,-4.608703,-7.975370
45.278050,1.923361,-4.238038,-8.565712
45.311431,2.689233,-4.865790,-5.707532
45.344102,2.123882,-5.228973,-10.997859
45.378193,1.723139,-3.671490,-9.480629
45.410885,1.002009,-1.330176,-10.679269
45.444138,-0.493074,-4.075825,-7.214586
45.477297,-0.674590,-4.152592,-8.207766
45.510969,-1.745136,-2.389648,-8.979325
45.544207,3.151331,-1.197443,-12.685532
45.578050,-0.808820,2.886762,-17.258920
45.611382,1.585766,0.084099,-9.655561
45.644281,1.425199,-6.018939,-9.677110
45.678298,0.636880,-6.622898,-4.634292
45.715891,-0.970135,3.140407,-11.187456
45.744303,3.059450,1.512441,-12.098183
45.778050,2.084975,-4.290563,-7.348217
45.811398,2.323805,-2.184338,-11.667960
45.844272,4.144212,-1.925905,-10.836843
45.878118,3.065735,0.069883,-9.395332
45.911358,0.490530,-3.293641,-7.337892
45.944860,1.664478,-1.439266,-9.029156
45.978040,2.172217,-2.377976,-8.614346
46.011619,3.139359,-8.411280,-9.823611
46.044313,-0.319338,-4.127302,-6.019836
46.078114,2.781114,-6.503632,-8.225573
46.111453,1.797361,-3.739428,-8.619733
46.144107,1.881760,-5.616549,-8.570949
46.178315,-0.779939,-4.818952,-8.722987
46.211167,-0.626106,-7.886333,-7.955468
46.244190,-1.641882,-2.969365,-10.509873
46.278131,-0.444440,-4.432873,-7.135425
46.310480,-1.307879,-1.469643,-19.710221
46.344783,0.508636,0.954722,-8.200284
46.378118,-0.008829,-4.812966,-6.819079
46.411032,0.690453,-5.203534,-9.792036
46.444185,0.151588,-3.951023,-7.713346
46.478051,-1.504361,-1.418166,-9.346848
46.511422,-0.265616,-1.230664,-10.381629
46.544910,2.299414,0.195883,-6.624993
46.578061,1.342148,-2.070909,-10.992621
46.611479,3.129782,-2.615908,-9.253022
46.644731,-0.757493,-3.578262,-10.209540
46.678040,1.797511,-6.078347,-7.619370
46.711452,-0.835307,-8.303089,-8.967354
46.744153,5.584974,2.089913,-13.800073
46.778050,1.162127,-2.434541,-6.823269
46.811452,-1.116037,-4.324681,-8.910190
46.847020,1.774466,-8.648764,-9.005513
46.878185,0.554726,-4.930585,-8.521567
46.911391,1.157189,-4.030932,-8.094187
46.944589,-1.970947,-2.701654,-12.167468
46.978108,-1.954935,1.891487,-7.573579
47.011101,-0.236885,-4.451728,-8.026249
47.044543,-1.776561,-6.293533,-9.581039
47.078130,-0.050579,-4.209755,-9.435137
47.110693,2.295523,-4.212449,-8.424449
47.144461,2.113407,-4.391123,-10.478598
47.178112,0.175830,-4.627858,-9.457135
47.211107,0.713797,-6.046922,-5.439222
47.244276,1.534888,-4.349821,-12.344945
47.277952,3.020842,-5.587368,-4.541215
47.311371,1.117833,-5.181836,-10.884579
47.344580,2.428256,-8.086106,-6.479689
47.378686,-0.777694,-4.863396,-11.144658
47.411440,1.139681,-3.567637,-6.587283
47.444099,0.588246,-2.807302,-12.248574
47.478171,2.101436,-7.844433,-11.413567
47.510848,-0.312155,-5.544122,-8.884302
47.544248,-0.587349,-3.919747,-7.021846
47.578113,-0.672645,-5.258304,-13.197760
47.611369,1.032536,-6.295928,-6.355186
47.644384,0.427231,-5.953994,-7.430670
47.678118,1.587712,-1.192804,-11.848130
47.710731,0.221322,-4.457414,-8.109151
47.744886,-3.470669,-3.371156,-8.763091
47.778032,0.366326,-1.962717,-11.159473
47.811522,-0.841442,-1.153747,-8.222880
47.844348,0.534225,-0.062102,-11.815209
47.877737,0.123007,-3.476056,-6.360573
47.911385,0.630296,-2.601094,-10.178863
47.947964,0.743875,-3.911667,-6.876093
47.978032,1.681538,-5.862562,-10.143846
48.011361,-0.331908,-2.199452,-4.962459
48.044404,1.186519,-1.115289,-10.028023
48.078269,-0.321732,-1.640386,-13.273778
48.111371,1.000064,-1.144320,-5.170463
48.144463,0.055368,-5.915236,-5.566119
48.178115,1.426995,-7.399096,-9.737566
48.210889,-2.792487,-3.291247,-12.006602
48.244301,1.585168,-4.123112,-7.466584
48.277596,-0.784428,-2.347449,-7.953972
48.310802,2.028111,-5.744344,-9.515196
48.344385,-1.394373,-1.114690,-7.170142
48.377576,-0.900102,-3.400337,-16.453541
48.411450,-4.395911,1.722690,-8.892233
48.444375,3.509576,-0.706464,-5.177347
48.478053,3.695732,1.123370,-11.232499
48.511451,-4.210653,3.851959,-7.977914
48.544268,4.157380,-2.802363,-9.450700
48.578276,4.359847,-5.217750,-6.638161
48.611375,0.842789,-2.277715,-8.562120
48.644719,-0.541707,-3.785667,-9.633714
48.678117,0.434114,-1.833425,-7.997218
48.711081,0.667108,-1.736906,-10.563595
48.744716,-1.816516,-5.788788,-7.426480
48.778119,2.218457,-0.901449,-8.366238
48.810692,0.203215,0.305122,-9.273673
48.844468,1.046902,-6.737823,-7.383832
48.878117,2.182692,-0.418402,-9.290133
48.910819,0.866283,-3.446277,-9.124030
48.944470,-0.488435,-2.208730,-9.871945
48.978121,0.874214,-3.335392,-10.629288
49.017445,-0.053423,-3.771302,-10.156865
49.044412,0.240177,-0.853264,-9.267088
49.078051,2.104129,-4.726024,-7.218776
49.111480,-0.203514,-8.407689,-9.452346
49.144461,0.645560,-4.415365,-11.360294
49.178135,-0.870024,-2.113407,-10.214927
49.210837,-0.224015,-2.842617,-11.051730
49.244257,-1.299499,-2.453396,-8.943411
49.278146,1.668968,-3.137264,-10.509574
49.310734,0.807473,-1.527406,-10.125141
49.344461,-0.328167,-3.423082,-9.888406
49.378117,2.835883,-2.656761,-9.590018
49.410667,0.770811,-1.088652,-8.396615
49.444452,-0.947389,-4.000555,-8.317903
49.478117,-0.989140,-1.846744,-11.557074
49.510756,-0.996622,-5.208772,-7.737887
49.544467,-2.051455,-5.766192,-8.507052
49.578115,-0.704519,-3.485783,-9.266639
49.611186,0.138569,-4.416562,-8.797958
49.644464,0.619971,-2.773033,-8.412478
49.678063,1.491791,-1.535037,-9.656908
49.711363,2.445914,-4.268415,-7.874810
49.744511,-0.150840,-2.102334,-9.782309
49.778357,-0.004639,-1.171854,-6.563789
49.811497,-1.038971,-2.205587,-9.136600
49.844400,0.133182,-1.223930,-8.379257
49.878173,0.051028,-3.440441,-8.969299
49.911473,1.113942,-3.893709,-7.450722
49.944721,-0.416756,-4.509640,-8.508997
49.977931,-0.023943,-2.380819,-10.393601
50.012037,0.595729,-2.722155,-10.693485
50.044463,0.792210,-2.106075,-10.690791
50.078107,-1.403800,-5.078133,-9.339067
50.117633,0.629249,-3.808563,-10.629887
50.144464,0.994527,-0.448630,-10.519450
50.178053,-1.544914,-4.119521,-8.691113
50.211373,0.099662,-2.638654,-9.664390
50.244499,0.230151,-0.807024,-10.426821
50.278111,-0.403288,-5.513594,-8.662830
50.310716,1.140130,-5.387296,-8.501515
50.344455,1.006648,-2.024220,-10.086982
50.378112,-0.410022,-2.510260,-9.660500
50.410711,-1.291269,-0.287464,-10.527980
50.444713,-0.292402,-2.396233,-9.588073
50.478188,0.084399,-4.259886,-8.714457
50.511373,0.185857,-4.368676,-7.947986
50.544505,1.781649,-2.939586,-7.499656
50.578101,-0.042948,-4.484350,-7.658576
50.611432,-0.922848,-5.820213,-6.931012
50.644732,2.859976,-3.772948,-10.350952
50.678114,-0.993180,-1.913784,-7.485888
50.710604,-0.146052,-4.427935,-7.422141
50.744205,0.725319,-2.730385,-11.124008
50.778159,0.241673,-3.744366,-10.554467
50.810959,1.007396,-2.971011,-7.987043
50.844359,0.385181,-2.165333,-9.813884
50.878116,0.779340,-1.620334,-9.797124
50.911012,0.056715,-5.636002,-9.265891
50.944191,-0.284771,-5.126468,-9.752231
50.978116,-0.078413,-3.358586,-9.808197
51.011271,0.170593,-1.546261,-9.620844
51.044446,0.806575,-2.036192,-10.532020
51.078150,0.251400,-3.289002,-8.647716
51.112040,0.794005,-3.671490,-9.117146
51.144189,0.881247,-2.536897,-10.130079
51.178117,-0.950233,-5.732971,-7.639572
51.217231,-0.660524,-4.727071,-8.888342
51.244476,0.304374,-1.711317,-9.538990
51.277614,-0.503399,-2.395784,-9.044569
51.311468,1.674355,-2.908460,-9.208877
51.344601,1.881910,-6.322265,-8.856618
51.378040,2.512206,-0.727414,-9.316770
51.411423,3.073666,-3.655927,-8.345587
51.444176,-0.714246,-5.907904,-8.263882
51.478051,-0.016012,-4.060412,-10.208492
51.511449,-0.861644,-3.249946,-10.098205
51.544038,1.142973,-2.157103,-8.977679
51.578053,0.438753,-2.244195,-8.849585
51.611506,0.681025,0.194087,-9.672322
51.644180,0.323977,-3.100452,-8.895824
51.678053,-0.524947,-4.149898,-9.814931
51.711453,-1.616443,-4.045298,-8.739148
51.744054,-1.098230,-1.463807,-8.927997
51.778054,0.780089,-3.935909,-8.021161
51.811691,1.154795,-2.994355,-9.090809
51.844217,0.484993,-3.778784,-8.720742
51.878052,1.163923,-3.278078,-9.118044
51.911532,0.146500,-2.971759,-9.657208
51.944034,0.812860,-2.846957,-9.067614
51.978055,0.237932,-1.554790,-9.069260
52.011450,-0.349117,-3.528730,-8.020263
52.043924,-1.149108,-4.483752,-9.155455
52.078052,-0.112531,-4.081511,-9.365105
52.111434,-1.045555,-4.286821,-9.697611
52.144313,-0.488734,-2.799820,-9.733825
52.178066,0.442494,-1.935632,-9.928660
52.211509,1.850185,-1.671362,-8.384494
52.244003,0.840395,-2.829598,-9.789043
52.278083,1.129655,-2.236264,-8.690065
52.311529,1.503313,-3.306511,-9.422119
52.347821,0.886934,-1.717003,-9.889902
52.378025,0.819594,-1.644726,-9.798919
52.411393,0.426033,-3.105540,-8.754711
52.444456,0.642417,-3.694535,-9.458931
52.478115,1.048847,-2.843366,-8.725082
52.510966,1.358159,-3.846871,-7.646605
52.544393,1.176642,-2.631172,-8.811725
52.578306,-0.351960,-4.792465,-8.923807
52.610695,-1.542519,-2.586578,-9.830494
52.644462,-0.650797,-2.685792,-10.766960
52.678086,-0.082453,-0.567446,-9.118343
52.711057,0.070781,-1.599683,-10.217920
52.744118,1.635747,-1.419064,-9.120588
52.778163,2.100837,-3.566889,-9.297765
52.810746,3.014108,-4.670356,-9.305547
52.844191,1.255055,-3.775791,-9.996448
52.878118,0.345376,-1.883256,-9.596752
52.910739,-1.024755,-1.674205,-9.143334
52.944295,-0.566548,-1.901214,-9.598099
52.978237,-0.409273,-2.842318,-10.114516
53.010617,0.144854,-1.230215,-10.057951
53.044220,0.395207,-2.494249,-9.524923
53.078102,0.615631,-1.800953,-8.352920
53.110611,1.145068,-2.639552,-9.845907
53.144252,1.129655,-2.491854,-10.465429
53.178347,0.200073,-2.105476,-9.616505
53.211373,0.007632,-2.247787,-8.698744
53.244448,1.195797,-2.327546,-8.925154
53.277361,0.043396,-4.062357,-10.055258
53.310525,-0.006285,-3.168091,-9.977593
53.344112,-0.878404,-2.763905,-9.778867
53.377988,-1.075783,-1.228868,-9.605730
53.411359,0.651545,-1.800055,-8.931439
53.444784,-0.656633,-3.304416,-10.108680
53.478077,1.005601,-2.416285,-9.410596
53.511370,0.510881,-2.412693,-9.374682
53.544194,0.356150,-1.477126,-9.987619
53.578159,1.355615,-0.505644,-9.550961
53.611375,0.774402,-1.480867,-10.398838
53.644325,0.822887,-1.009192,-10.093417
53.678116,-0.829471,-1.675851,-10.101198
53.711130,-0.866283,-1.612103,-9.835582
53.744504,-0.024392,-1.655201,-9.990762
53.778122,0.409124,-1.430587,-9.020178
53.811054,2.803710,-1.729124,-9.203490
53.844198,4.593440,-2.118794,-9.818074
53.877131,3.056158,-2.423168,-8.536681
53.911400,3.801829,-3.477403,-9.442021
53.944757,2.287292,-4.112039,-9.136450
53.978034,1.877420,-2.695219,-8.835518
54.011383,2.457436,-3.810658,-9.333081
54.044527,1.535337,-1.724934,-9.599595
54.078039,1.856470,-1.522318,-9.423166
54.111383,0.851019,-3.257877,-9.851893
54.144921,0.262923,-3.237525,-9.423765
54.178092,0.536171,-2.585830,-9.287440
54.211063,0.735196,-2.905916,-9.255267
54.244147,0.032323,-2.993757,-9.198702
54.278119,0.754200,-2.694471,-9.274571
54.310967,0.247659,-3.265808,-8.416368
54.345157,-0.383685,-2.763905,-9.078538
54.377987,1.086109,-2.127773,-9.254069
54.411383,-0.197978,-2.238509,-9.498287
54.444460,1.179486,-2.138996,-9.455639
54.477880,1.147312,-2.388900,-9.664540
54.511061,1.583372,-2.487215,-9.227732
54.544696,2.025567,-2.847705,-9.649875
54.577862,0.936466,-3.021291,-9.097393
54.611393,0.764227,-3.343323,-9.220998
54.644693,0.394160,-3.408866,-8.919917
54.678236,-0.088140,-3.376244,-9.080484
54.711400,-0.067639,-3.279276,-9.074348
54.744879,0.383086,-3.340480,-9.059983
54.778119,1.167814,-3.311299,-9.258110
54.812009,1.683483,-3.067980,-9.239704
54.844922,2.211274,-3.016203,-9.311233
54.878039,2.186732,-3.156119,-9.335924
54.911449,1.682885,-3.332698,-8.895375
54.944858,0.919257,-3.510923,-9.154557
54.977756,1.010688,-3.622407,-8.731067
55.011523,0.206507,-3.467826,-9.305547
55.044866,0.092330,-3.438196,-8.915876
55.078066,-0.247659,-3.464384,-9.254369
55.111432,-0.001347,-3.270746,-8.980073
55.144866,0.275343,-3.359933,-9.297167
55.177519,0.982256,-3.451066,-9.059384
55.211442,1.509448,-3.541749,-9.062526
55.244231,2.425263,-3.423382,-9.238058
55.278066,2.806553,-3.104044,-9.265742
55.311446,2.576552,-3.179913,-9.147224
55.344453,2.141391,-3.574371,-9.224889
55.378070,1.068750,-3.126191,-9.057738
55.411672,0.524349,-3.275086,-9.230725
55.444392,0.402988,-3.135768,-9.212469
55.478099,-0.392813,-3.073516,-9.166828
55.511992,0.257685,-3.277480,-8.973938
55.544754,0.202617,-3.498652,-9.247485
55.578046,0.297789,-3.432360,-8.888192
55.611456,1.444503,-3.722668,-9.190920
55.644640,0.965945,-3.609089,-8.925454
55.678026,1.212407,-3.947431,-9.004315
55.711383,1.593248,-4.000106,-8.815466
55.745006,0.932276,-3.829213,-8.939670
55.778115,1.495083,-3.836546,-8.933235
55.811465,0.803732,-3.709649,-8.884152
55.844186,0.704968,-3.680019,-9.028258
55.878330,0.851169,-3.564196,-8.954035
55.911458,0.500705,-3.590832,-9.066268
55.944716,0.797148,-3.552075,-9.065669
55.978105,0.869575,-3.616122,-9.113106
56.011447,1.182179,-3.507182,-9.019579
56.044783,1.222433,-3.428918,-9.011798
56.078068,1.476377,-3.488177,-9.032748
56.111449,1.902111,-3.222262,-9.103379
56.144537,1.400359,-3.211487,-9.254369
56.178416,0.951280,-3.104792,-9.187029
56.211539,0.836803,-3.147141,-9.104277
56.245914,0.323378,-3.406322,-9.133757
56.278207,0.579268,-3.228098,-9.042474
56.311446,0.387725,-3.285261,-9.178649
56.344779,0.628051,-3.409166,-9.171317
56.378151,1.448394,-3.570930,-9.110712
56.411445,0.917012,-3.460643,-9.034244
56.444259,1.356663,-3.405275,-9.048460
56.478122,0.866582,-3.522445,-9.218006
56.511465,0.227158,-3.230342,-9.196158
56.544714,0.529886,-3.260570,-9.059833
56.578103,0.517166,-3.360532,-9.218604
56.611396,0.878254,-3.451066,-9.100087
56.644774,1.136538,-3.482341,-9.010750
56.678566,0.820792,-3.516310,-9.175058
56.711354,0.809419,-3.384175,-9.048610
56.744716,0.501304,-3.526336,-9.217257
56.778114,0.439501,-3.364273,-9.078838
56.811509,0.832613,-3.414553,-9.089612
56.845038,0.880649,-3.503141,-9.062078
56.878126,1.142823,-3.418743,-9.109514
56.911465,0.795801,-3.122749,-9.192267
56.944725,0.806725,-3.175423,-9.207680
56.978008,0.679678,-3.244558,-9.202742
57.011410,0.423340,-3.145345,-9.205585
57.044646,0.715443,-3.309803,-9.160393
57.078032,0.667108,-3.477702,-9.026911
57.111362,0.585553,-3.552972,-9.006410
57.144431,0.770661,-3.703813,-9.118493
57.178019,0.598871,-3.653383,-9.047712
57.211352,0.779640,-3.614625,-9.046215
57.244203,0.698384,-3.620312,-9.095598
57.278046,0.900102,-3.607293,-9.019579
57.311379,0.798644,-3.487279,-9.242547
57.344635,0.804181,-3.526186,-9.069859
57.377633,0.903544,-3.367415,-9.151414
57.411437,1.028346,-3.443284,-9.220101
57.444972,0.830668,-3.186946,-8.926800
57.477628,0.724870,-3.693637,-9.185832
57.511453,0.816751,-3.643806,-8.955233
57.544792,0.520159,-3.682563,-9.141538
57.578176,0.542456,-3.687651,-8.901511
57.611448,0.460302,-3.769506,-8.994439
57.644717,0.106695,-3.804223,-8.904653
57.677503,0.254543,-3.992474,-8.759200
57.712535,0.371115,-6.059941,-7.249153
57.744196,-1.895677,-4.387830,-7.126296
57.777286,1.080123,-4.573088,-8.441957
57.811449,0.679529,-4.788574,-8.617788
57.844098,0.072427,-5.113449,-8.394221
57.878054,0.804929,-5.620739,-8.481613
57.911648,-0.518962,-5.126917,-8.519323
57.944182,1.424601,-5.529756,-8.489095
57.977962,1.128607,-5.510751,-8.514983
58.011555,0.687759,-6.503183,-8.190258
58.044807,0.881547,-5.910896,-8.346934
58.078115,1.157937,-7.085444,-7.502199
58.111476,0.250502,-5.892341,-9.197205
58.144978,-0.118517,-5.326241,-8.454976
58.178055,0.252897,-6.088523,-8.055130
58.211618,-0.483796,-4.432723,-8.407689
58.245244,-0.174783,-3.765615,-8.406492
58.278116,0.814207,-5.220444,-8.493584
58.311529,-0.657681,-5.269078,-8.434325
58.345148,-0.322331,-5.446704,-8.623923
58.378114,0.385929,-5.505364,-8.601028
58.411448,-0.257536,-4.614390,-8.467696
58.444841,-0.874214,-4.480011,-8.907496
58.478115,-0.109988,-4.990293,-8.408288
58.511462,-1.774316,-4.966350,-8.390330
58.544206,-1.150904,-3.939201,-8.150004
58.578115,-0.481701,-3.294090,-7.238229
58.611389,2.152165,-6.653574,-9.085422
58.644163,2.757920,-5.812431,-9.668132
58.678115,3.594124,-1.196844,-10.189787
58.711518,4.443348,-0.575527,-10.314140
58.744009,-1.466202,-2.581640,-7.907732
58.778117,-2.903223,-2.912201,-9.252573
58.811457,-3.009469,-1.924259,-9.599595
58.844260,-1.246077,-5.243339,-7.048183
58.878114,-1.516931,-5.573302,-8.676747
58.911580,-1.511394,-6.238166,-10.491766
58.944255,1.384945,-6.666743,-8.352620
58.978114,-2.147526,-4.774358,-10.460042
59.010988,-1.754564,-3.106139,-9.766297
59.044776,-1.341549,-5.915535,-5.012141
59.077278,0.996472,-5.333275,-10.105837
59.111391,-0.156676,-2.220252,-7.718882
59.144175,-1.576189,0.483496,-9.049657
59.178053,-0.001796,-3.721171,-6.029713
59.211496,0.077515,-3.171682,-9.869401
59.244150,0.785326,-3.997861,-9.202143
59.278214,-1.012634,-3.192183,-6.443625
59.311371,0.973577,-0.180469,-13.074604
59.344373,-0.949634,1.659989,-8.607163
59.378049,0.022446,0.988392,-7.633436
59.411400,-1.170058,0.045043,-13.269588
59.444659,4.772862,-1.502116,-8.828784
59.478424,3.961797,-0.437406,-10.531571
59.511476,-1.216298,-0.092180,-8.605966
59.544514,-1.171106,-4.296698,-9.214414
59.578361,1.081619,-8.317903,-10.380282
59.611539,-1.443456,-7.428276,-11.131939
59.644867,-3.638419,-3.632433,-9.028109
59.678119,-0.070332,-1.520821,-14.476758
59.711406,1.414425,1.295609,-10.637219
59.744535,2.049659,-1.631407,-9.592711
59.778118,-2.013895,-2.930308,-10.294238
59.811545,-1.044358,-3.485484,-9.860123
59.844864,1.891636,-1.505558,-9.461924
59.878109,-1.860361,-2.605433,-9.603486
59.911653,0.025290,-0.311856,-11.136578
59.945429,-1.574992,-0.334751,-9.212319
59.978115,1.744837,-3.241865,-7.976119
60.011455,-0.967142,-5.704838,-10.514512
60.044260,-2.986873,-3.973320,-8.906898
60.078040,-1.533840,-4.099319,-11.365083
60.111390,-2.703300,-1.296058,-9.561436
60.144178,0.544700,-3.556414,-8.945506
60.178052,-0.732502,-3.588139,-8.024902
60.211042,-2.187930,-3.536212,-8.160479
60.244232,-2.177903,-3.964042,-9.288038
60.278394,0.899204,-4.137627,-8.540871
60.311420,-0.670550,-1.487750,-7.998116
60.344799,0.042648,-3.475158,-9.540486
60.377445,0.518513,-3.722219,-7.652740
60.413244,-0.341186,-3.665803,-9.164583
60.444952,-0.478708,-2.017486,-8.756806
60.478064,-1.045555,-4.287420,-7.930627
60.511450,-2.080935,-1.665676,-10.887123
60.544780,-2.078391,-4.144361,-9.188077
60.578067,-0.716191,-0.112531,-11.073129
60.610517,-0.041002,-1.221685,-11.403391
60.645506,0.148595,-0.788918,-8.495529
60.678072,1.558082,-7.454613,-8.569004
60.711447,1.164671,-4.221876,-10.952218
60.745169,0.972978,3.406322,-10.267452
60.778062,2.500534,-0.795053,-10.581552
60.811456,-2.028261,-0.923746,-9.856682
60.844843,-0.139318,1.938026,-11.603314
60.878065,-2.995702,-5.798066,-9.855335
60.911454,-3.531873,-2.706293,-7.969534
60.944893,-2.083479,-3.750651,-7.858649
60.978070,-1.992346,-3.574820,-7.875409
61.011385,-1.782098,0.211595,-13.272132
61.044787,1.473684,-0.927038,-10.809758
61.077669,-1.712065,1.519175,-11.168901
61.111526,-1.351575,-3.172580,-7.931824
61.146560,1.982170,-1.808884,-11.823738
61.178030,0.734298,-0.015264,-10.009018
61.211449,-3.485783,-0.438304,-7.189446
61.244710,-3.155371,0.589144,-9.486315
61.278123,-1.850485,-1.915729,-9.203640
61.311472,-0.288212,-1.073239,-11.256292
61.344228,0.040853,-5.532150,-8.290519
61.378121,-2.169673,-2.420624,-9.857729
61.411205,0.433216,-1.117833,-10.276280
61.444262,-1.951494,-4.292209,-7.008527
61.478281,0.778742,-4.159026,-9.171018
61.511114,0.973727,-0.216833,-9.166678
61.544164,0.851019,-2.398178,-9.698359
61.577543,-0.178075,-3.827418,-9.285345
61.611660,0.370965,-7.814504,-8.642479
61.644790,-0.247659,-4.870878,-7.783379
61.678039,-1.591602,-4.114283,-8.359504
61.711383,0.735944,0.013169,-10.624350
61.744694,2.410299,-1.293963,-8.353069
61.778122,2.059237,-1.160631,-9.927313
61.811455,3.283017,-1.392128,-11.154984
61.844706,2.282354,-3.746311,-9.771684
61.878042,0.188550,-4.928341,-9.690428
61.911357,-0.624460,-5.752425,-10.604896
61.944730,-2.434092,-6.517250,-10.046279
61.978129,-1.275556,-4.803090,-7.876606
62.011376,2.994505,-3.736285,-10.478897
62.044131,0.724571,-3.976612,-8.465002
62.078116,0.491427,-2.604087,-8.946553
62.110828,1.151353,-3.805420,-12.605772
62.144230,-3.467377,-2.550814,-8.573044
62.178126,-1.619735,-2.703599,-9.683545
62.216902,-1.579332,-3.739577,-9.222345
62.244468,-2.353285,-3.118709,-8.967503
62.278066,-0.145603,-5.263092,-7.539461
62.311441,0.134978,-6.126083,-8.049743
62.344455,-0.938411,-2.703300,-9.091707
62.378161,0.186305,-2.464769,-8.294260
62.410954,2.959489,-5.025309,-8.542368
62.444786,1.856770,-2.067916,-9.769889
62.478199,-0.327419,-2.026016,-9.828848
62.510949,-3.627794,-2.913099,-7.631042
62.544094,0.034568,-1.408290,-14.300030
62.578059,1.013232,-3.118858,-6.912008
62.611377,-0.768716,-2.903073,-11.659281
62.644166,-0.849523,-6.868312,-6.698916
62.678068,-2.113707,-4.550642,-7.252745
62.711379,-0.483197,-3.151181,-15.415169
62.744460,0.635234,-1.403202,-14.149190
62.778113,-0.413763,-2.898883,-6.953908
62.811454,2.490208,-2.806404,-8.205372
62.844466,1.451686,-4.847833,-9.942277
62.878119,-0.468682,-5.174952,-11.175934
62.910723,1.518128,-2.602889,-10.192331
62.944457,1.777309,-2.474496,-10.325064
62.978058,0.431421,-2.676214,-3.061994
63.011378,-0.320236,-2.533006,-5.876179
63.044444,-0.867181,-4.977124,-7.979261
63.078115,-0.768417,-4.247765,-9.309587
63.110858,0.672944,-7.217279,-8.038071
63.144759,0.597075,-5.279104,-6.536703
63.178036,-0.014964,-2.192568,-10.626894
63.210916,-0.986297,-3.798088,-9.565177
63.244008,-0.112083,-4.685620,-7.438152
63.278029,1.159882,-5.465409,-9.559341
63.311365,1.570203,-2.128372,-11.232349
63.344282,0.238830,-2.979690,-9.044120
63.378027,-2.413142,-3.994718,-6.051710
63.411527,-3.134122,-2.606780,-10.305760
63.444874,4.197185,-2.560690,-10.664305
63.478034,0.948587,-6.474152,-7.272946
63.511395,-0.194536,-5.654259,-9.472847
63.544705,0.965945,-6.417737,-9.814033
63.578042,0.300333,-6.692930,-7.605303
63.611382,-1.367737,-5.945165,-8.023855
63.644734,0.457159,-4.014621,-11.953778
63.678117,1.437021,-4.631300,-10.325363
63.710769,2.825857,3.807964,-27.804108
63.744136,1.968852,-1.905254,-18.214091
63.778120,2.535550,-7.404333,-10.714884
63.810629,-2.796228,-6.515753,-3.374149
63.844238,-0.700030,-0.715742,-7.832162
63.878125,3.549082,-4.144511,-8.714906
63.910652,3.514215,-5.900272,-8.555237
63.944334,2.701354,-2.195412,-10.634226
63.978169,0.737740,6.722410,-8.273759
64.010588,0.774402,-3.428021,-9.388748
64.044213,1.347984,-5.890695,-5.296762
64.078050,2.663794,-6.098848,-9.500082
64.111576,-0.182564,-5.020970,-14.184655
64.144461,-3.189789,-1.105263,-10.047626
64.178119,1.346787,0.935418,-13.816234
64.210582,-0.383086,-3.865577,-10.943239
64.244402,0.221771,-4.344284,-8.955382
64.278303,0.488285,-0.936914,-9.010600
64.311843,-0.059408,-1.339155,-8.136237
64.344466,1.428192,-5.439521,-13.469960
64.378126,-1.623327,-2.448907,-5.997540
64.416979,-0.008230,-1.557185,-9.232371
64.444378,1.973940,-1.038821,-9.173262
64.478037,-2.073153,-6.486722,-4.891529
64.511364,0.794903,-4.324532,-11.475669
64.544724,1.123669,-6.675422,-8.438665
64.578040,1.676899,-0.088439,-10.723114
64.611382,1.553144,-3.215827,-9.827202
64.644547,-0.099213,-3.811406,-8.035527
64.678040,0.597674,-0.501154,-11.330216
64.711890,0.644662,-0.365278,-9.454890
64.744155,2.301509,-3.193081,-9.510707
64.778052,1.453931,-7.418998,-8.931290
64.811526,-3.622706,-1.239044,-3.286758
64.844321,7.070929,4.605561,-31.589327
64.878050,-2.364508,-10.998757,-14.960105
64.911512,-3.738979,-3.731796,-3.576766
64.944112,6.872652,-8.463955,-9.812986
64.977626,2.049360,-8.342145,-6.781669
65.011453,0.750609,-1.697400,-13.349797
65.044116,1.152700,4.847085,-26.647518
65.078120,-0.581662,0.776946,6.226194
65.111490,2.932104,-16.527016,-3.518255
65.144094,-3.588438,-4.997925,-18.130440
65.178132,0.177327,-1.995339,-12.476181
65.211702,1.034631,3.967184,-11.369721
65.244191,1.549702,2.122536,-11.972633
65.278118,-2.849501,-8.348281,-11.232200
65.311451,3.479647,-9.844411,-15.901359
65.344145,3.002286,-6.149727,-1.390782
65.378127,0.851169,-6.996855,-3.592927
65.410580,0.357198,-3.941296,-5.057932
65.444410,0.460601,0.165056,-13.574561
65.478047,1.596840,-3.532621,-8.902708
65.511381,1.139681,-7.674139,-3.860040
65.544814,-1.520073,-12.850588,-4.844541
65.578091,-6.330196,-3.929923,-15.743037
65.611367,-0.903095,-7.675785,-3.308606
65.644120,1.130104,-4.201076,-2.773782
65.678103,3.946384,-5.187073,-4.253900
65.711485,0.637629,-5.790583,-13.446017
65.744111,-1.197593,-5.319807,-6.219161
65.778054,0.780687,1.491641,-14.109833
65.811476,0.175232,5.649021,-10.559555
65.844232,0.788169,1.259096,-12.660093
65.878049,2.036790,-3.782076,-8.030888
65.911455,0.409124,-6.644895,-0.449976
65.944458,-1.906601,-9.884366,-8.660586
65.978106,-0.103104,-2.660502,-9.539738
66.011447,-0.137971,-1.882059,-8.919169
66.044103,1.551049,-3.940997,-10.496405
66.078084,0.378447,-6.128028,-8.723436
66.111417,-1.618239,-11.739639,-7.126745
66.144670,0.869126,-1.413827,-11.466241
66.178085,3.401085,-2.475543,-12.341054
66.211334,0.233593,-1.580828,-6.830153
66.244701,-1.144320,-8.009040,-19.704235
66.278082,0.028283,-8.167811,-1.761148
66.311350,-0.710954,-5.784598,-13.723006
66.344665,0.381440,-2.161293,-22.397209
66.377998,-0.327119,-1.497477,-8.130251
66.411330,-4.011179,0.255740,-1.382551
66.444102,1.232908,-2.000876,-6.503782
66.477998,-3.042091,5.785496,-9.013444
66.511336,4.183418,-2.981486,-9.666186
66.544163,0.130788,-6.220657,-2.216661
66.578115,3.126789,-2.378126,-6.209434
66.611366,2.171020,-0.699132,-8.784041
66.644341,1.910043,2.648231,-5.767389
66.678062,0.296892,-5.969108,-10.227646
66.711364,-3.977360,-1.286929,-0.817350
66.744462,4.754306,-6.925176,-5.795372
66.778109,-1.419363,-8.812024,-8.834022
66.810724,0.830668,-4.844092,-10.097008
66.844544,1.114092,-1.025802,-10.625098
66.878296,0.707213,-3.013360,-10.391206
66.910835,0.304823,-0.165954,-6.476098
66.944781,0.680576,-8.773566,-1.502714
66.978138,0.306169,2.038586,-9.426757
67.011192,1.383449,-0.714545,-15.109748
67.044424,-0.166553,0.473770,-9.551111
67.078053,-0.978815,-4.064901,-8.395568
67.111417,-0.637030,-3.209692,-6.729593
67.144464,0.686562,0.399696,-8.285281
67.178121,2.240753,-5.170912,-6.569774
67.210662,1.354119,1.036876,-9.858627
67.244467,4.685470,-1.416670,-8.572745
67.278124,-2.685343,-5.915386,-6.199109
67.310764,1.651160,-1.023258,-10.132474
67.344717,-1.896724,-5.553998,-10.012310
67.378024,-0.596626,-2.779767,-2.690580
67.411329,2.347449,-15.655346,-8.523962
67.444374,-1.785689,2.156953,-8.441658
67.478007,1.598486,-2.734276,-10.972569
67.511340,2.590619,-6.680959,-11.944650
67.544424,2.740112,-6.613171,-6.019836
67.578334,3.264461,-1.880413,-14.597969
67.611437,-3.227050,-8.523363,-12.474835
67.644346,6.347555,1.353969,-15.449886
67.678045,3.448821,-4.840650,-11.820446
67.710723,1.179336,-10.071569,-3.942643
67.744699,0.985698,-2.846508,-7.797445
67.778025,0.160268,-2.979840,-9.366002
67.811366,1.673607,-4.788724,-4.596732
67.844783,1.705331,-7.931974,-11.774955
67.878067,-0.172089,-6.178308,-9.811340
67.911382,-0.233293,-0.733250,-6.895248
67.944883,1.156590,-3.308755,-5.421863
67.978040,2.279062,-3.449120,-13.165886
68.011333,-1.861259,-5.438174,-5.006754
68.044668,-1.217196,-8.341547,-10.005726
68.078128,-3.493265,-4.822094,-6.234125
68.111331,-1.628714,-8.076828,-7.616676
68.144669,-4.198682,-2.391444,-13.807255
68.177998,1.768480,-5.709926,-3.058253
68.211338,-2.027213,-10.448968,-0.381889
68.244748,1.005002,-1.277951,-16.830941
68.278003,0.793257,-4.396959,-10.472612
68.311421,0.009278,-1.612103,-3.679870
68.344276,6.388407,5.356320,-17.605044
68.378000,-3.624801,-1.360105,-14.142456
68.411332,-0.474368,7.111931,-17.681661
68.444367,-3.300974,3.483239,-9.197654
68.477999,1.906750,-4.697591,-9.668132
68.511345,1.490743,-1.536983,-8.792421
68.544044,1.527555,15.269117,-8.891335
68.578333,3.728354,-7.043394,-5.556392
68.611131,1.726431,-12.607269,-6.686047
68.644098,-4.776902,-1.704583,-9.886909
68.678045,1.252511,1.320749,-9.861171
68.711194,2.905617,-0.995724,-15.170802
68.744283,1.279896,-4.617981,-16.178198
68.778406,0.382038,0.034867,-7.269205
68.817441,-0.503399,-4.559471,-6.641902
68.844670,-1.832079,-9.472698,-4.514428
68.878078,0.160268,-6.277522,-8.462758
68.911416,-0.455663,-3.922142,-8.636343
68.944666,1.208666,-0.491577,-12.487704
68.978002,0.086194,0.820792,-12.082172
69.011403,1.527705,-4.310166,-11.529989
69.044676,0.986746,-7.586598,-5.720251
69.078003,-2.666188,-5.562228,-6.589527
69.111337,1.783594,0.742828,-12.622083
69.144669,1.932040,2.143186,-8.806338
69.178000,2.407007,0.102206,-7.861193
69.211330,1.395420,-1.136089,-8.617339
69.244275,0.420347,-3.220167,-9.552458
69.277998,-0.552182,-3.618067,-8.089997
69.311340,-1.468147,0.893668,-11.285772
69.344783,-0.057463,0.586750,-7.975221
69.378028,2.314079,-8.686474,-7.446083
69.411363,-3.632882,-9.221896,-7.498758
69.444556,-0.884988,-2.670229,-11.968742
69.478046,2.126426,-3.695732,-9.030204
69.511358,-1.502116,-4.519067,-8.088052
69.544257,0.181068,-3.598913,-11.238185
69.578118,0.676386,-3.406921,-7.401789
69.611607,1.576788,-0.309013,-12.829937
69.644452,0.273996,-1.756659,-3.228397
69.678166,3.386121,-2.234020,-8.535933
69.711121,0.445786,-1.318803,-13.966027
69.744487,-2.136752,-0.413912,-7.068085
69.778053,1.491192,-6.622449,-6.569325
69.811325,-0.528539,-2.937192,-4.390823
69.844788,3.393902,-13.519642,2.736969
69.886692,-1.248471,3.168240,-7.415706
69.911479,-0.370815,-2.335627,-14.041447
69.944103,1.389584,-7.015710,-5.772626
69.978049,-1.553743,-8.481014,-8.592049
70.011453,-1.820556,-11.367776,-9.196457
70.044115,2.424216,-1.065009,-16.547816
70.078050,2.798772,-2.349245,-9.154108
70.111981,0.263821,-3.452412,-7.069133
70.144142,0.186904,-4.651950,-11.808325
70.178052,0.863739,-1.746483,-8.629161
70.211501,2.239556,-2.440377,-9.949011
70.244128,0.381440,-6.367607,-3.800781
70.278155,-0.455064,-5.529457,-11.309415
70.311451,3.077557,-4.291760,-9.791737
70.344216,-0.503997,-4.968146,-7.135724
70.378054,0.166852,-4.726622,-6.507373
70.411747,-2.267240,-3.992175,-8.810528
70.444124,0.761683,-7.550833,-10.247250
70.478054,-0.579717,-5.946511,-6.999998
70.511530,9.427356,-5.594252,-6.866666
70.543963,-4.359398,-3.371156,-5.031445
70.578061,7.699130,6.220508,-22.075178
70.611541,4.363888,-0.560862,10.467973
70.643891,-0.949784,0.328466,4.782439
70.678050,1.673307,4.884944,-16.025712
70.711452,-3.352900,15.799602,2.089016
70.744339,6.840628,-16.294920,-12.379811
70.778025,-0.978964,11.783933,-20.694123
70.811384,-2.454593,14.427974,-4.293406
70.844688,4.498117,7.244963,-16.596001
70.877582,7.433513,-5.184978,-9.733974
70.911521,3.099105,-3.339582,-10.495657
70.944655,-2.518341,-0.476164,-4.964554
70.978031,0.042948,-15.827435,-4.831671
71.011385,1.012484,-10.836244,-9.124778
71.044077,2.588823,-7.037558,-12.523768
71.078026,3.033113,-4.433472,-6.381972
71.111840,3.158364,-7.558765,-6.137456
71.144809,-1.607764,-1.569605,-10.466028
71.178047,1.550002,-1.617940,-7.176128
71.211453,3.596519,-2.071507,-17.877544
71.244129,-0.318889,1.209714,-10.982446
71.278089,-0.110736,-2.640001,-9.939733
71.311699,-0.234042,3.789857,-23.122978
71.344140,5.514642,-9.944971,-9.370043
71.378046,2.302855,-12.152504,-9.125377
71.411464,2.475843,-1.134294,-15.368780
71.444260,-2.816131,-2.812838,-2.264996
71.478229,0.399547,-12.997388,-6.409357
71.511392,-0.799393,-12.425153,-8.485803
71.544336,-5.315317,-8.254305,-6.324958
71.578116,-1.865449,-4.614689,-5.521376
71.610753,1.652806,-0.731155,-10.373997
71.644692,0.399547,-7.913269,-6.563489
71.678123,1.183077,-5.930051,-7.927784
71.711224,-0.189448,-9.048610,-9.481227
71.744088,-0.231198,-9.701502,-2.987173
71.778309,3.150134,-7.583007,-8.847041
71.811103,1.076382,-1.227371,-12.470345
71.844479,1.826841,-4.957372,-5.105967
71.878572,-0.761084,-2.124182,-9.560688
71.911991,-1.510945,-3.017251,-14.524344
71.944460,-1.114391,-5.415279,-10.608637
71.978114,1.128308,-2.102034,-11.971885
72.010978,-0.943798,-5.398220,-3.039548
72.044340,-3.238124,-5.807044,-8.635595
72.078051,3.594124,-3.460643,-8.842402
72.116550,0.170294,-1.192804,-10.374446
72.144376,-1.897173,-0.863739,-13.409355
72.177648,1.570503,-6.380476,-9.842017
72.211388,2.810594,-11.877011,-6.768051
72.244717,-0.505494,-1.328530,-8.501216
72.278030,-0.931378,-2.005066,-6.871305
72.311337,6.087924,-12.656052,-2.602740
72.344122,-3.011115,-2.220402,-10.368610
72.378007,4.745926,0.985848,-9.634163
72.411352,0.723524,-0.548142,-8.235899
72.444294,0.730407,-1.270319,-7.129888
72.478029,-2.140942,-13.177109,-16.993453
72.511389,-1.177091,-8.906299,-8.979624
72.544383,1.905104,-0.552182,-10.736283
72.577425,3.268052,-4.563511,-8.763091
72.611594,-4.353263,0.228056,-0.235987
72.644173,3.735836,-2.682649,-21.908326
72.678045,1.485506,-4.164862,-5.923766
72.711418,3.365470,-0.423041,-8.249067
72.744386,1.268523,-5.269976,-11.242675
72.778002,-3.038650,-3.978856,-12.383253
72.811335,1.267925,-0.787421,-1.449741
72.844693,4.323783,-9.317668,-10.451662
72.878009,-0.338642,-4.885393,-12.886203
72.911420,-3.516160,-1.744687,-5.945464
72.944674,2.029308,-7.664412,-6.993114
72.978001,0.524199,-1.871734,-12.644979
73.011339,-2.383214,-0.182115,-9.525971
73.044754,-1.277801,-2.707639,-7.018853
73.078061,1.882508,-6.823569,-8.975734
73.111337,0.839647,-3.154174,-11.248211
73.144714,-0.610394,2.161592,-10.504336
73.178090,1.820556,-4.068642,-5.932744
73.211332,3.585295,-3.881139,-13.118150
73.244344,-1.609111,-4.322885,-11.095875
73.277998,0.737291,-3.195625,-12.025906
73.311376,1.146265,0.016910,-5.559385
73.344383,2.848154,-0.427530,-10.990526
73.378036,4.320192,0.957266,-12.232263
73.411351,3.534417,0.854012,-18.925044
73.444478,-5.721748,-5.977039,-6.595812
73.478043,3.764418,0.605755,-9.353732
73.511379,2.960686,-1.193253,-5.512846
73.544408,2.176856,-6.301614,-8.087004
73.578029,1.679144,1.189661,-8.853625
73.611368,-2.364209,-3.974217,-10.409612
73.644787,0.207405,9.865660,-9.405658
73.678126,-0.446385,-1.604771,-9.589120
73.711360,2.017337,-4.373165,-5.666529
73.744375,1.770426,-4.701632,-9.030952
73.778044,-0.721279,-4.348624,-9.936890
73.811382,-1.958527,-6.095705,-10.215675
73.844171,1.383299,-1.831929,-11.367327
73.878022,0.743875,0.166403,-7.297189
73.911104,1.120676,-0.235538,-11.578623
73.944062,-0.477810,-0.597524,-9.002969
73.978038,0.039655,-6.017891,-12.129459
74.011380,3.228846,-3.380733,-10.686901
74.044374,-1.166018,2.811043,-8.444351
74.078051,1.185920,-0.999166,-10.173027
74.111043,1.491042,-6.240261,-10.988581
74.144498,-0.488734,-2.991363,-9.127172
74.178251,0.823335,-0.344777,-9.537942
74.213927,-1.799756,-0.941254,-8.858264
74.244149,0.575826,-2.329941,-9.313328
74.278055,1.359506,-4.780643,-11.266767
74.310593,1.155692,-6.462780,-8.554189
74.344377,-1.655051,1.254008,-6.530418
74.378056,0.409124,-3.497156,-8.242184
74.411384,1.359656,-3.744964,-10.914807
74.444716,-1.618239,-3.171533,-7.290155
74.478383,-0.452071,-0.389970,-11.913524
74.510593,1.888943,-5.718456,-7.308412
74.544782,3.436401,-5.405851,-7.249901
74.578038,2.034246,-0.911176,-13.606584
74.611364,1.457073,-4.764631,-10.031914
74.644667,4.034374,-3.560754,-8.924256
74.678064,4.094680,-0.142011,-11.188205
74.711423,0.638975,-8.309224,-9.779915
74.744697,4.731560,-1.579182,-11.587751
74.778084,-3.935460,-1.041964,-13.111266
74.811337,-3.283914,-4.701931,-7.048632
74.844671,3.610585,-9.994802,-5.551903
74.878000,3.361579,-8.302789,-11.939113
74.911420,0.265018,0.968190,-7.964746
74.944371,-5.595000,3.282867,-12.480222
74.977997,-4.593141,-3.340031,-8.965558
75.011331,-2.320214,-4.965003,-6.223052
75.044388,-2.693872,-4.598677,-26.754064
75.078087,-12.809885,-13.372393,13.630976
75.111347,1.109902,7.318288,-11.236988
75.144132,4.559022,-1.768780,-8.741991
75.178044,5.396873,-6.033753,-8.496577
75.211047,0.505943,0.861046,-10.026077
75.244314,6.423124,-5.270425,-7.106095
75.278046,4.574585,-3.587540,-9.483023
75.311100,-0.497862,-3.926481,-6.983537
75.344838,1.117833,-0.460002,-8.463955
75.377727,1.129655,-6.258517,-14.739531
75.411356,0.832613,-7.854459,-14.983898
75.444842,-0.086045,-3.944139,-6.051710
75.478050,2.415836,-6.389455,-12.253812
75.511454,-3.635725,-2.790542,-12.195152
75.544874,-1.040168,-1.056629,-3.525289
75.577893,1.649215,-3.996215,-3.696031
75.611384,1.780901,-4.925198,-11.649254
75.644716,-0.095771,-4.317199,-5.957735
75.677865,0.199624,-9.734573,-8.711315
75.711470,1.524263,-3.211038,-8.387786
75.744771,3.856748,-2.526721,-5.164926
75.778111,2.280259,-1.754863,-7.717236
75.811452,-0.389521,-0.761982,-8.911387
75.844136,2.067467,-1.844050,-11.681577
75.878058,1.969301,-0.344029,-13.283355
75.911183,4.345930,-1.774765,-10.937104
75.944017,0.313801,-6.146285,-10.952068
75.978054,0.478409,-5.004659,-6.554810
76.010637,0.128992,-3.959403,-8.367136
76.044768,-1.041066,-3.035956,-7.928233
76.078053,-5.751527,-4.029885,-8.898069
76.111361,-2.218307,-4.247765,-8.610904
76.144453,-1.061567,-5.104919,-10.786264
76.178158,1.949997,0.441447,-9.157250
76.211393,2.726195,-2.776475,-10.854202
76.244721,-0.008530,-4.094081,-12.086960
76.278050,4.856512,-3.258924,-6.236968
76.311446,-0.536620,-7.191990,-4.038265
76.350747,3.043887,-3.002286,-7.878402
76.378060,2.206785,-0.788319,-9.059384
76.411452,-1.335713,-1.621232,-7.836951
76.444923,-3.983196,-3.979455,-7.560411
76.478027,-2.051605,-7.972527,-8.448392
76.511430,1.759053,-0.965646,-17.316383
76.544271,1.767433,2.368848,-15.610004
76.578028,-0.446983,1.754863,-13.648784
76.611388,1.940719,1.183526,-13.660007
76.644469,1.333319,-5.303196,-9.260055
76.678048,3.303069,0.840993,-10.916603
76.711528,4.194043,-1.982769,-7.934668
76.744305,-0.042499,-1.564367,-10.321024
76.778048,-3.234233,-8.362646,-12.251268
76.811453,-0.278486,-3.500747,-7.690151
76.844300,0.999016,-1.648317,-6.321367
76.878053,0.745372,-3.436401,-7.553976
76.911722,2.340266,-4.099020,-10.718625
76.944052,1.688870,-2.874641,-8.027895
76.978049,-0.330711,-4.257043,-11.200475
77.011456,1.355316,-3.423232,-9.627878
77.044153,0.500406,-1.950147,-7.263519
77.078052,-0.475116,-4.329320,-6.834343
77.111464,2.674568,-5.998886,-4.707917
77.144095,1.854076,-1.880862,-7.407176
77.178051,2.609025,-0.566399,-8.324787
77.211787,1.205973,-4.787078,-8.157037
77.243918,1.296656,-2.114156,-11.181022
77.278024,2.162191,-2.852643,-10.549379
77.311388,1.620783,-2.773931,-6.069069
77.344561,0.911026,5.048205,-7.675486
77.378123,1.867394,-1.373573,-9.837078
77.412875,0.778892,-4.077770,-8.632602
77.444310,-1.129056,-3.004531,-10.896401
77.478048,-1.059322,-3.684359,-10.533367
77.511062,-1.022061,-7.293897,-9.311832
77.544797,-1.490444,-5.889647,-9.073600
77.578003,-1.065607,-1.255205,-8.725680
77.611410,-1.141177,-4.268116,-8.104063
77.644741,-1.673607,-3.103295,-8.328827
77.678015,2.308991,-3.298579,-12.110005
77.711363,-0.614434,0.158622,-10.564193
77.744285,-0.379345,-3.819187,-11.756997
77.778154,-1.919021,-0.757493,-7.684764
77.811457,0.469280,-0.006435,-7.954570
77.844150,-2.960536,-0.843088,-9.928510
77.878051,0.834708,-5.061822,-7.678030
77.911438,-1.696053,-4.955127,-6.177710
77.944739,0.781435,-5.691669,-11.686965
77.978055,0.535722,-4.217387,-9.419425
78.011453,0.957565,-2.669032,-10.546985
78.046926,-0.864038,-3.130082,-7.375153
78.077304,0.630745,-1.852430,-12.903861
78.111458,0.960558,-0.374856,-8.159880
78.143933,3.828615,2.263649,-14.359887
78.178011,-1.096284,-4.798750,-11.840648
78.211402,1.071593,-3.305014,-7.840991
78.244708,1.673307,-3.466778,-9.896936
78.278006,3.378339,-4.514428,-8.500168
78.311413,0.840096,0.339390,-7.744322
78.344669,-0.101907,-2.010752,-2.026465
78.377513,1.939522,1.668070,-13.763560
78.411334,1.954187,4.117276,-9.722452
78.444706,0.340887,-4.510687,-8.053185
78.478085,0.642866,-4.981763,-10.291694
78.511332,1.993244,-5.674311,-6.317177
78.544682,0.919855,-3.294389,-13.077896
78.577097,0.164458,-5.321453,-5.971502
78.611335,-3.995317,-7.965793,-3.424579
78.644668,-2.476591,-0.581064,-10.780428
78.678008,-2.178502,-2.114604,-8.654151
78.711347,0.932276,-2.661699,-8.011135
78.744204,1.884753,-4.489288,-8.770872
78.778023,0.690303,-4.717943,-8.226920
78.812111,-1.552845,-3.681366,-5.508955
78.844687,0.645560,-2.937790,-11.169200
78.878834,-3.513467,-6.842424,-10.304114
78.911382,2.344306,7.376350,-13.412497
78.944502,4.593889,1.562721,-12.524666
78.978118,0.064945,-1.197892,-7.933321
79.010575,1.746333,-3.687352,-9.049807
79.044721,-2.013296,-4.686518,-7.207702
79.078013,-2.708837,-4.868633,-7.657529
79.111522,0.812561,-5.730726,-7.128840
79.144782,0.333704,-3.544892,-12.117637
79.178048,2.125828,0.393711,-12.682988
79.211356,1.226623,-6.934155,-8.551645
79.244280,-3.822629,-4.883448,-5.495637
79.278185,-0.006285,-6.233976,-8.099873
79.311453,-1.804844,-2.787100,-5.107463
79.344084,0.472423,-3.260869,-5.611611
79.377562,1.460216,-5.077086,-5.350334
79.411459,-0.167002,-1.934883,-9.653616
79.444026,1.622279,-1.675851,-9.502626
79.478056,1.949997,-3.699772,-6.303111
79.511437,1.553443,-2.016888,-5.612209
79.544167,2.538244,0.917611,-15.464551
79.578052,-2.374684,4.237439,-10.660414
79.610724,4.641625,1.806190,-27.815930
79.643825,-3.743318,2.943776,-13.178755
79.678042,3.476355,6.437490,-29.355158
79.711377,-1.667022,13.582941,-5.042668
79.744158,1.465453,-0.850720,-5.688527
79.778127,0.990038,-14.591684,-7.535869
79.810615,-6.541043,-17.666397,-3.708601
79.844104,1.647419,-2.678758,-23.321105
79.878028,-3.902987,-13.703852,-11.547647
79.911439,1.811278,1.969451,-15.442404
79.944806,-2.066120,-1.754863,-7.482147
79.977616,-2.885415,0.532280,-11.579371
80.011389,0.549040,-5.214608,-9.835881
80.044840,-2.042028,-13.421626,-0.086045
80.077962,-2.010004,-4.822843,-12.913288
80.111387,-0.545897,-12.298705,-10.813349
80.144884,1.607764,-4.753259,-7.357495
80.177990,1.902860,-5.938880,-13.395588
80.211383,5.012739,-0.984202,-22.134586
80.244868,-2.781563,-3.587540,9.180595
80.278224,2.962781,1.026102,-12.578687
80.311385,-2.325900,-0.401791,-6.717173
80.344781,2.750138,-2.248086,-15.225721
80.378206,2.655115,-2.815382,-11.174138
80.411383,3.544592,0.560413,-16.257359
80.444861,-1.751870,3.852707,-13.511711
80.477719,0.339839,-2.844862,-4.559920
80.510459,0.783082,-5.903265,0.254992
80.544376,-0.888580,-7.584503,-9.850995
80.577624,-0.478558,-4.096027,-5.569561
80.611401,2.013895,1.707725,-3.819786
80.644517,1.494933,2.295822,1.595493
80.678209,-3.561352,11.935372,-15.138180
80.711252,-4.937768,3.832655,-1.612403
80.744153,7.333103,-5.008998,-5.702444
80.778128,0.370067,-7.688954,-4.096925
80.811027,-2.138547,-3.835498,-9.259157
80.844117,4.184615,-2.067617,-17.875299
80.878051,2.354632,38.588876,-2.733378
80.910584,1.848839,18.812662,-14.019449
80.944742,3.689746,-3.200414,-10.406171
80.978059,2.708088,-7.452668,-28.755538
81.011358,-4.269313,-5.940526,22.671804
81.044714,-6.015796,-36.710557,38.541588
81.078200,-6.667341,-9.858178,-17.849860
81.111615,-0.844884,8.155690,-1.129655
81.145931,-1.305186,-3.234981,-6.333638
81.178024,-0.953974,7.475713,-13.479238
81.211391,0.078563,-12.787888,-8.007095
81.244770,-2.019432,38.663248,-3.042840
81.278055,8.164519,1.691115,-15.944606
81.311455,-4.845588,0.761982,-9.160094
81.344228,-4.316152,-3.703663,-10.425774
81.378054,-2.580144,-5.004060,-10.241114
81.411455,4.434369,-8.820853,-4.048740
81.444026,6.636515,-4.170998,-10.080697
81.478179,-1.339155,0.329514,-13.791244
81.511441,-4.497668,-0.375454,-10.466028
81.544713,-0.407178,-0.439052,-12.360058
81.578377,3.173628,-1.708025,-8.432380
81.611537,2.120889,-3.813800,-10.173925
81.644427,-0.150242,-4.555281,-14.862388
81.678051,0.250203,-1.531147,-7.554425
81.711432,1.230514,-5.155499,-9.869102
81.744722,0.213391,-5.852087,-2.603338
81.777835,1.546560,-1.423404,-7.791609
81.811503,2.838427,-3.729102,-7.701674
81.844568,3.643806,-6.459637,-10.588735
81.878055,1.878917,-8.449439,-8.679740
81.911453,-0.124204,-7.570137,-6.820426
81.945031,4.053229,-0.344628,-12.078879
81.978027,1.867843,-3.732544,-8.302939
82.011392,0.912972,-2.383363,-10.936804
82.044441,-1.528154,-1.085959,-6.922034
82.078032,1.335264,-1.470242,-6.560796
82.111380,3.820384,0.308115,-12.337013
82.144373,-4.540017,-3.665055,-11.479110
82.178118,-2.641497,-2.976548,-7.910425
82.210737,-1.721792,-7.843535,-3.961498
82.244716,0.674291,-2.403116,-7.231196
82.278095,-0.459553,-8.445698,-11.938664
82.311687,0.223118,-4.523108,-2.821218
82.344772,-2.531360,-7.120311,-9.004764
82.378094,-2.046517,-2.287292,-8.315509
82.411360,-2.131514,-3.853306,-10.578858
82.444785,-4.011478,-5.189168,-6.328550
82.477727,-2.188678,-2.933900,-6.489117
82.511383,-2.382316,-7.510280,-6.184893
82.544216,-0.992731,-3.783123,-8.030140
82.577373,-0.509235,-6.468167,-7.943796
82.611372,0.078263,-4.948842,-10.509574
82.644144,-0.832613,-4.577578,-7.293298
82.678025,-3.059450,-10.335539,-5.225681
82.711380,-2.546624,-1.818461,-11.283677
82.744150,-0.275792,-4.761040,-7.731752
82.778023,2.084676,-3.351852,-7.782032
82.811544,1.527854,-5.183931,-14.117465
82.844075,-1.682585,-5.080378,-9.901724
82.878026,-1.407691,-4.110991,-10.481890
82.911432,0.910877,-4.333809,-10.875152
82.944873,0.307965,-5.556243,-12.578088
82.978028,1.486852,-6.049466,-8.251312
83.011408,0.751507,-1.037624,-8.526954
83.044133,3.139359,-3.278677,-10.183801
83.078051,0.018855,-4.303133,-4.918464
83.111904,1.342148,-6.899887,-4.691456
83.149486,-0.732353,-4.728567,-6.906022
83.178030,0.838001,-6.762215,-9.854886
83.211387,-0.093826,-7.018105,-10.105538
83.244492,0.065244,1.584120,-9.065070
83.278051,-0.021998,-1.783295,-14.706460
83.311451,-0.569242,-1.763392,-6.704303
83.344265,0.723973,-1.725084,-9.528814
83.378048,0.128693,0.562358,-10.139656
83.411454,1.205823,0.787421,-9.796824
83.444266,0.930181,-4.652699,-10.027125
83.478061,-1.431185,0.251400,-10.070671
83.511502,-0.835157,-2.714822,-9.264544
83.544465,-0.095921,-6.621850,-6.209584
83.578143,0.162363,-4.802641,-13.880580
83.611083,-2.764055,-2.363012,-8.444202
83.644143,0.848924,-5.003611,-8.123068
83.678051,-0.781735,-6.678415,-2.723352
83.711353,1.473085,-0.711103,-11.001899
83.744424,3.122150,-2.550065,-9.061030
83.778082,-1.211958,2.686091,-8.167662
83.811452,-0.027684,1.107059,-10.581253
83.844194,-1.831031,1.268224,-9.868054
83.878109,0.930330,-1.735858,-10.610732
83.911098,3.043139,-3.564196,-8.881309
83.944055,1.532643,-5.034138,-7.616826
83.978052,-3.017251,-1.533541,-8.952988
84.011453,-0.340438,-2.480332,-11.237587
84.044717,1.261191,-6.808305,-3.848517
84.078146,2.012099,-5.105967,-8.202528
84.110923,2.631322,-2.969964,-15.282436
84.144739,1.080871,-2.207233,-8.120225
84.178050,0.655286,-1.408888,-7.986294
84.210588,2.634314,0.003591,-10.061692
84.244748,-0.175382,-5.017378,-4.203171
84.278101,3.109580,-5.895334,-7.735493
84.311391,0.399247,-2.754029,-11.123858
84.344825,2.155307,-2.635961,-10.247549
84.377765,-1.033135,-3.047628,-12.226876
84.411389,-0.353157,-3.156868,-9.574455
84.444818,0.432767,-1.459917,-10.046279
84.477880,-0.041601,-4.100965,-8.205821
84.511381,1.499273,-3.208794,-8.702785
84.544794,0.054171,-4.569647,-8.876820
84.578226,-1.248471,-2.902325,-9.533154
84.611401,-0.702274,-2.913548,-8.579479
84.644926,-0.551584,-3.892213,-10.890864
84.677877,0.206807,-3.903436,-9.719758
84.711383,0.558617,-3.160010,-8.148358
84.744766,-0.030228,-3.732394,-10.498051
84.778169,0.485591,-2.271879,-8.201631
84.811359,3.415900,-6.452454,-7.892917
84.844719,1.576189,-3.575718,-9.331285
84.878032,0.461499,-3.356791,-8.258345
84.911383,0.613536,-9.557396,-8.204025
84.944486,-0.593035,-7.282823,-8.697398
84.977605,0.591838,-7.742227,-9.371390
85.011382,0.950981,-6.394692,-9.406406
85.044463,0.351511,-3.981251,-12.190812
85.078182,-0.406879,-8.080719,-9.480330
85.111234,-1.155244,-1.903309,-10.561949
85.144158,2.045469,-2.306147,-3.540702
85.178408,3.499550,-2.067168,-8.642928
85.211949,0.217880,-3.360382,-12.876626
85.244766,-2.447859,-5.244087,-8.749773
85.278126,-0.364680,-4.622171,-7.374105
85.310518,0.441596,-4.796505,-9.178200
85.344138,1.841356,-2.539890,-8.295457
85.378052,0.410022,-3.075911,-7.568192
85.411368,0.299436,0.899504,-9.422268
85.444166,0.131686,-1.455427,-9.059833
85.478125,0.476762,-5.972849,-10.706953
85.511243,-2.333981,-1.566163,-14.402685
85.544960,-1.962867,-2.043823,-11.581017
85.578046,1.029095,-4.435567,-6.086278
85.611447,2.774530,-2.612915,-8.810827
85.645710,-0.355103,-3.225404,-12.750627
85.678025,2.153063,-1.209714,-12.984668
85.711701,0.446086,-1.462012,-6.866217
85.744536,-0.667707,-3.967633,-12.399265
85.777945,-2.013147,-3.533519,-7.973874
85.811392,1.721642,-6.312089,-8.797359
85.844733,-1.130104,-3.105241,-18.681725
85.878153,-3.992175,-1.161678,-5.183931
85.910583,1.432831,-9.118493,-10.604148
85.944725,-0.892770,-2.120889,-9.749088
85.978201,0.944995,-2.224592,-9.370791
86.010326,-1.513189,-0.833062,-5.814077
86.044146,1.459318,0.822288,-7.387274
86.078120,0.455363,-0.270255,-10.025180
86.110872,-0.503848,-4.755802,-7.876457
86.144106,-0.265167,-4.650753,-7.892917
86.178262,-0.247061,0.748215,-12.293617
86.211458,3.067830,-1.355167,-7.004337
86.244126,3.080999,-3.118260,-4.982212
86.278311,3.094317,-3.399289,-10.120352
86.311090,-3.170485,-3.032065,-11.202570
86.344756,1.059023,-5.178693,-4.621423
86.378798,-0.218479,-4.194641,-12.646774
86.418208,0.151139,-0.645111,-6.027468
86.444755,-1.735110,-4.510089,-12.759456
86.478053,3.172580,-4.088694,-6.734681
86.511460,3.268052,-2.309440,-9.919831
86.544156,1.846145,-3.069476,-9.647780
86.578114,-1.158087,-0.769763,-10.542346
86.610847,-0.378447,0.106695,-11.071932
86.644528,-1.020116,-0.016311,-8.084161
86.678333,-0.176878,-7.602161,-10.692288
86.710775,-1.329278,-6.033604,-6.837934
86.745071,-0.413613,-5.923616,-7.016309
86.777918,0.129591,-1.632904,-10.761124
86.811383,0.789666,-2.033199,-10.922738
86.844728,-0.025739,-2.761361,-7.542902
86.877925,0.790713,-0.364381,-10.620010
86.911382,1.048698,-2.263499,-11.881201
86.944663,2.448009,-4.093932,-7.745220
86.977806,2.860126,2.719761,-11.407431
87.011383,2.234020,6.090917,-9.543329
87.044975,-3.411710,-5.754520,-8.481313
87.078293,1.173051,-6.396637,-7.435309
87.111281,3.999657,-1.113044,-8.269569
87.144690,-3.810508,-2.901277,-5.847298
87.178053,0.599619,-3.659967,-8.493584
87.211433,1.119030,-1.950446,-12.388191
87.244714,-1.730172,-2.322309,-11.367776
87.278121,-1.538030,-7.124950,-7.542304
87.310805,4.012376,-2.178053,-10.510621
87.344184,-1.459019,-5.762900,22.130845
87.383160,27.242648,-35.075858,23.090954
87.410803,-13.154962,-27.042725,16.755970
87.444059,6.842424,-11.395011,-17.701563
87.478050,14.696135,-11.695793,-5.965666
87.510480,-2.314228,4.383341,-11.708663
87.544743,-3.318183,6.234424,-8.899266
87.578620,0.644512,14.807619,-5.421414
87.611387,-1.042562,-0.655286,-1.090149
87.644862,-0.491128,-3.426375,-14.539159
87.677926,11.824935,-0.024541,-7.901746
87.711368,10.053612,-2.654367,-12.636299
87.744780,-10.331499,-0.931078,-8.744984
87.778130,-1.279148,-4.204967,-12.445804
87.811382,1.974090,-1.845995,-10.212084
87.844724,-3.440441,-7.234937,-11.686516
87.877878,5.826647,-7.232693,-8.205521
87.911833,8.539674,-5.054041,-12.506709
87.944229,5.075739,0.772008,-9.703447
87.977648,-4.985804,-3.782525,-8.259542
88.011446,1.358758,-1.864102,-14.656629
88.043802,-0.815554,1.213604,-9.710181
88.078027,-0.500107,-1.858416,-11.325277
88.111379,0.851468,-3.398242,-10.869764
88.144692,-2.584184,-6.641753,-5.226430
88.178050,1.131899,-3.381182,-9.273224
88.211384,-1.603723,0.953974,-11.351615
88.244717,0.882744,0.561011,-6.670334
88.278118,-2.835584,-1.343494,-6.258517
88.311722,-2.034246,-0.177776,-14.288507
88.344720,-1.131899,-3.271793,-8.242184
88.378659,-0.764526,-2.798772,-9.322905
88.413471,-1.210312,-3.684060,-7.821238
88.444089,0.440698,-3.129633,-10.262962
88.478123,-0.488584,-4.452626,-10.412904
88.514060,-0.977617,-0.350015,-11.047690
88.543864,4.134036,-4.751463,-9.671424
88.578054,0.460900,-6.430457,-6.657914
88.610325,1.150305,-1.015477,-7.830516
88.644081,3.260570,2.291034,-11.031379
88.678079,3.307558,-1.963016,-11.260632
88.711393,2.877634,-3.529479,-9.504272
88.745020,1.450489,-3.209243,-10.753492
88.777672,-0.934520,-3.518106,-8.736455
88.811381,0.917611,-5.302448,-8.352022
88.844548,-1.142374,-2.948864,-6.385115
88.877792,0.469131,-5.912243,-10.354843
88.911469,-0.152785,-0.303476,-9.596303
88.944463,-2.235516,-2.258262,-9.939135
88.978050,6.299369,0.359891,-13.559896
89.011530,2.194364,-1.463957,-10.732991
89.044139,-0.303476,-4.798750,-11.808924
89.078050,1.944012,-1.486403,-10.754090
89.111544,1.443456,-3.258326,-10.605196
89.143933,3.128136,-2.606630,-6.619306
89.178051,-0.943349,-5.021868,-9.478833
89.211979,-0.467335,0.070033,-11.023597
89.243898,-1.856021,-7.198574,-7.365875
89.278056,6.031509,-1.531745,-10.506282
89.311991,-1.480867,-6.980694,-8.382549
89.344824,0.338941,-4.460407,-9.888705
89.378032,-1.148360,-6.855443,-6.435694
89.411360,-1.993843,-1.999679,-4.729016
89.444701,-0.411817,4.563661,-12.831134
89.478023,-2.456090,-6.863224,-7.856404
89.511396,0.064945,-3.183803,-2.664842
89.544406,1.035529,-2.202295,-6.171574
89.578042,4.664071,-2.145281,-10.833102
89.611463,3.603701,-3.545041,-10.435052
89.643716,0.875711,-4.172195,-10.799133
89.678023,4.786180,-5.258453,-14.218175
89.711382,0.508936,-7.805975,-7.707061
89.744113,0.369319,-0.193788,-12.017825
89.778027,2.584334,3.940548,-11.143461
89.811383,1.921266,1.044059,-6.985333
89.844344,-0.806127,-4.507096,-5.088459
89.878214,0.862692,-3.712941,-11.877310
89.910604,-3.483389,-2.163388,-9.116398
89.944404,0.976271,-10.219715,-8.383596
89.978107,2.692376,-3.950424,-4.029286
90.011293,-6.581446,-3.608490,-7.666657
90.044398,-1.784043,-3.309354,-5.871241
90.078355,-2.099939,-6.478941,-7.086491
90.111231,4.328123,-5.875132,-5.883212
90.144722,-1.004254,-5.518084,-5.358564
90.178543,-2.227136,-6.001281,-10.049422
90.211459,-2.377377,-7.546494,-5.477530
90.244428,-0.423190,-1.762046,-7.773951
90.280230,-2.337872,-7.961753,-6.267645
90.311138,0.089935,-0.521506,-11.642521
90.344421,2.624887,-1.566762,-10.676725
90.377419,2.442323,-2.766449,-9.211272
90.411657,0.144256,-0.158472,-8.236647
90.444263,-0.033969,-3.296784,-13.470259
90.477364,1.078926,-3.907177,-11.037514
90.511359,1.570203,-4.346978,-8.700690
90.544715,-0.225063,-5.994696,-6.394243
90.578026,0.585254,-4.684124,-9.556199
90.611356,-0.503399,0.173436,-8.703683
90.644080,0.155778,-3.316088,-11.697140
90.678168,0.513425,-0.776348,-10.558956
90.713660,3.555965,1.404399,-20.365956
90.744557,-1.933537,-2.641497,-11.181620
90.778251,0.453119,-4.008037,-6.654622
90.818448,2.063726,-5.303496,-8.378658
90.844130,-1.072641,-2.478536,-11.692052
90.878028,0.107144,-4.589998,-11.032426
90.911434,2.563384,-5.107314,-10.596666
90.944875,-0.161165,-1.883256,-7.977316
90.978117,-0.600816,-5.675957,-6.422675
91.011382,-0.657082,-2.807601,-8.019066
91.044400,1.897772,-5.270724,-8.665374
91.077906,2.477040,-3.250245,-7.768414
91.111430,1.154196,-3.388814,-9.441871
91.144185,1.844050,-3.248898,-12.154299
91.178054,1.156590,-1.955085,-9.126125
91.211476,1.576937,-2.242100,-8.777606
91.244338,1.255504,-4.458462,-8.923658
91.278024,1.506156,-2.287442,-11.828976
91.311381,0.420197,-5.932295,-7.653339
91.344841,-3.721770,-9.911601,4.275449
91.378109,-0.783680,-7.492473,-10.065284
91.410647,0.003143,-2.746846,-3.864379
91.444304,2.431698,-0.266364,-7.117916
91.478171,-0.967442,-5.060326,-5.026058
91.511656,1.336012,-3.855700,-7.514770
91.544139,-0.971482,-8.307578,-5.690472
91.578364,-0.300333,-7.896958,-7.593631
91.612009,-2.514750,-4.206613,-10.591428
91.644027,-2.984030,-0.546346,-13.201650
91.678089,2.524028,-6.510665,-3.394351
91.711369,4.171147,4.692354,-12.639292
91.744440,-4.779745,-4.033775,-7.696735
91.778048,0.930629,-4.782589,-12.388341
91.811044,0.742079,-7.016608,-9.245241
91.844779,0.841592,-5.282246,-10.766810
91.878039,-3.860638,-3.639765,-8.544163
91.911337,-0.845483,-0.737440,-8.391976
91.944720,1.559130,-7.275490,-6.595812
91.978005,1.970947,1.137586,-6.744258
92.011338,0.544551,-4.784384,-13.375835
92.044668,0.085745,-5.019773,-8.957477
92.078001,6.201503,-4.175487,-10.721019
92.111340,4.543459,3.468574,-14.437252
92.144699,-0.191842,-0.777844,-8.074883
92.178002,3.561652,-2.171170,-11.355356
92.211417,-0.031575,-3.803924,-6.515155
92.244003,1.166766,-4.347577,-7.859397
92.277999,0.528689,-1.949099,-9.068961
92.311336,-0.461648,-1.461862,-8.221683
92.344397,1.865599,1.364893,-13.164389
92.378016,1.586066,3.257727,-9.448306
92.411349,2.224442,-3.043438,-6.079843
92.444435,1.945807,-3.465581,-12.924362
92.478377,-0.119116,-4.633843,-6.908267
92.511431,0.209650,-3.742121,-9.151265
92.544336,1.599982,-3.629739,-10.533068
92.578034,-0.610244,-4.276646,-7.550534
92.610974,2.896938,-0.521206,-17.812150
92.644695,-2.299862,-3.073816,-6.711037
92.678051,1.609111,-3.669544,-7.888129
92.711249,1.872781,-1.060220,-7.349414
92.744162,1.102719,-3.689148,-8.564215
92.778476,-2.873743,-5.189617,-3.596818
92.813773,-0.812711,-7.136771,-6.976953
92.844327,-3.367715,-5.258154,-7.149940
92.878751,3.162404,0.645111,-8.353369
92.913074,-0.629698,-2.204839,-11.299988
92.944702,0.390269,-3.355893,-5.887851
92.978171,-0.382188,-3.690345,-11.173390
93.011443,-0.434413,-0.810466,-10.244107
93.044696,1.113044,-1.291419,-6.176064
93.078050,0.507290,-2.286245,-11.000253
93.111537,1.134443,-2.326649,-9.014192
93.144803,0.018556,-2.544379,-10.144146
93.177771,-1.279298,-3.293192,-9.558892
93.211365,-2.041579,-3.250095,-7.731752
93.244294,0.084698,-2.397130,-7.223115
93.278030,1.732716,-3.035358,-10.587538
93.311543,3.816494,-2.066868,-17.190383
93.344690,-0.827077,-5.782503,-1.552246
93.377398,1.291868,-2.260057,-8.994888
93.411525,0.735196,-2.839026,-17.258022
93.444162,2.443220,-1.973342,-8.049144
93.478037,2.803112,1.817414,8.998779
93.511715,-1.745735,-20.163789,2.790841
93.544014,-4.922205,-8.383297,-5.571805
93.578046,4.466243,12.103870,-14.668151
93.611480,-1.496130,-11.648506,-1.069498
93.643958,2.482576,-1.899568,-8.618686
93.678064,0.340587,0.694343,-6.406963
93.711383,0.138569,-8.807834,-9.413738
93.744709,0.200073,20.903923,-4.307772
93.778059,-3.232587,-7.521503,-9.704944
93.811283,0.572384,-4.921308,-14.358390
93.845047,-3.045234,-1.585467,-3.521099
93.877321,0.921202,-1.594446,-2.805656
93.911363,-0.073924,-3.136367,-11.222772
93.944507,-3.356342,-2.228632,-8.892233
93.977241,1.535486,-5.877676,-13.299517
94.010829,0.471974,-0.569840,-10.616569
94.044504,1.055432,-3.638419,-11.021353
94.078023,1.561524,-3.724463,-11.319441
94.111382,2.927315,-3.248150,-5.513295
94.144622,0.564304,-3.095514,-12.788786
94.178084,-1.114391,-3.131279,-8.869038
94.211406,-0.574629,-5.490998,-6.826861
94.244695,-0.780089,-6.004723,-7.345823
94.278156,0.714246,-0.385780,-15.075479
94.311577,0.011971,-1.924708,-9.093054
94.344534,1.577386,-3.490721,-8.970646
94.378504,1.027897,-3.420389,-7.820340
94.410562,0.125850,-4.009832,-9.579693
94.444719,-0.018107,-7.831264,-5.688078
94.478116,1.125914,-1.385694,-6.676170
94.510710,2.350741,0.398948,-15.777604
94.544827,-1.652806,-1.385245,-13.474449
94.578120,3.075312,0.300184,-9.357024
94.611460,0.747018,-4.927593,-8.685426
94.644489,-3.318183,-6.666294,-5.626724
94.677844,-0.915665,-8.445249,-8.664776
94.711446,0.082304,-4.416412,-9.973852
94.744408,-0.165355,-1.159583,-8.206270
94.778087,1.688421,-0.927637,-15.463504
94.811538,0.456411,-5.721598,-8.971993
94.844120,1.180234,-5.269826,-11.436013
94.878181,-1.613899,-6.636216,-5.023514
94.911448,-1.062166,-7.382934,-4.496771
94.944249,-0.414960,-5.713817,-9.834534
94.978032,1.536234,-3.409615,-10.300672
95.011399,-1.974688,-5.867350,-2.829598
95.044234,-0.994377,-9.676063,-11.314503
95.078031,-1.042263,-1.782846,-7.785773
95.111378,1.805741,-4.571143,-15.162721
95.144450,0.925841,-7.096218,3.679720
95.177512,-3.242314,-5.613107,0.364081
95.212620,-0.713348,-6.726750,-9.407902
95.249122,-1.159733,-5.668176,-11.490783
95.278046,-1.543866,-4.605561,-7.509981
95.311378,0.364979,-7.770809,-7.470026
95.344662,1.536384,1.047201,-12.004507
95.378163,-2.323057,-6.362220,-9.519386
95.411388,0.251849,-5.375773,-9.176554
95.444297,-0.800290,-1.692462,-9.890950
95.478115,-0.031575,-1.904805,-11.663471
95.510453,1.965859,-0.792659,-9.902772
95.544696,-1.670614,-2.732031,-10.626595
95.578021,1.169909,-1.940420,-10.731345
95.611419,0.266364,-2.743703,-8.640683
95.644506,-0.103104,-0.191094,-12.445804
95.678477,0.323827,-0.529586,-11.304926
95.711318,0.044294,-2.102932,-10.300972
95.744465,0.147249,-2.669630,-10.248596
95.780490,-0.040553,-1.735559,-8.949097
95.811216,-0.298238,-4.913526,-7.124052
95.844234,-0.563705,-2.321411,-9.830644
95.879326,0.947539,-3.982897,-8.430884
95.911547,-1.706977,-4.330966,-7.298835
95.944232,0.151289,-5.072896,-7.534672
95.978509,2.461626,-5.508806,-10.565391
96.012243,0.868677,-5.055388,-6.252980
96.044786,1.227072,-8.523962,-6.886419
96.079369,-1.602526,-3.798088,-9.170718
96.111005,1.816516,-2.175659,-9.501429
96.144705,0.582111,-6.370450,-6.320469
96.178015,2.194364,-2.336675,-8.142671
96.211331,0.207255,-2.977895,-12.505511
96.244663,-1.488199,-3.548483,-9.836181
96.277998,0.705566,-1.521121,-14.086788
96.311337,2.107871,-1.740497,-5.517485
96.344364,1.083116,-2.364359,-7.871818
96.378094,-0.441147,-5.315168,-9.975498
96.412356,-0.811813,-2.580892,-8.587111
96.444726,1.301894,-4.541364,-5.659047
96.478130,-0.608897,-7.911623,-5.889049
96.510898,2.794582,0.588695,-11.674544
96.544191,1.157937,-0.261426,-16.239402
96.578028,-1.073389,-0.970734,-9.657956
96.611410,-0.171790,-4.060561,-8.168260
96.644786,3.485932,-3.083393,-6.639508
96.678024,-0.986297,-0.387575,-5.181537
96.711538,-0.973427,-4.878510,-7.729058
96.744752,0.371264,-3.498802,-11.582214
96.778107,-0.325623,-3.315339,-8.344240
96.811375,1.080871,-3.305014,-5.843407
96.844718,-0.063149,-2.410898,-10.893258
96.878079,-1.261041,-3.555067,-9.616954
96.911643,0.731754,-6.643698,-7.230747
96.944802,2.653020,-4.144960,-13.970366
96.977969,-1.830133,-3.632134,-3.567637
97.011384,-0.914318,-6.892704,-8.384045
97.044944,-0.472423,-6.534159,-4.939414
97.077493,-0.832314,-3.098058,-6.257021
97.111391,-1.280495,-9.545424,-7.943796
97.144781,-2.208131,-7.488432,-5.217152
97.177393,1.607764,-2.478686,-10.313093
97.211429,-0.485142,-3.542497,-5.021718
97.244876,1.136837,0.108341,-10.263561
97.278076,0.183013,-1.505857,-8.756058
97.311442,1.356813,-4.938965,-6.684999
97.345794,-1.082667,-1.914831,-10.231836
97.377435,-0.436957,-4.715997,-9.107270
97.411436,0.172239,0.699281,-11.773458
97.444716,0.557570,-3.612830,-7.304820
97.477620,1.760549,-2.022424,-8.295906
97.511413,1.583222,-1.832228,-10.284810
97.544283,-0.895613,-0.909679,-12.585421
97.578063,-0.202168,-2.362264,-9.021824
97.611379,0.770661,-6.476846,-9.009254
97.644540,2.074351,-4.183867,-11.912626
97.678066,-0.040853,-0.072427,-16.081978
97.711554,1.116486,-1.615096,-9.802062
97.745918,0.225213,-4.980417,-11.878358
97.777800,-0.730707,-5.598292,-8.967952
97.811384,-1.574543,-6.263904,-5.696009
97.845655,-1.127410,-2.811192,-11.271406
97.877647,-0.212493,-5.261296,-7.466285
97.911439,0.247360,-3.705908,-11.298192
97.945601,-0.671897,-3.839389,-7.267410
97.977533,1.639787,-1.281093,-9.453992
98.011384,1.065458,-4.137029,-6.981891
98.044928,-1.286780,-3.271344,-6.290690
98.077622,-1.069648,-4.177732,-8.901062
98.111391,-0.278037,-1.485954,-11.762385
98.145036,0.389521,-0.531532,-8.489095
98.177683,-0.072726,-3.730898,-7.902794
98.211386,-0.027534,-0.742528,-8.154194
98.244136,0.392813,-2.308991,-8.599831
98.277446,-0.017658,-2.234618,-12.256356
98.311344,1.381055,-1.311920,-10.452859
98.344109,2.684894,-0.843687,-11.077020
98.378045,-0.185108,-1.956432,-10.078004
98.411345,1.054085,-3.924087,-8.594892
98.444789,0.964449,-2.911304,-9.437532
98.478027,0.447582,-1.428492,-8.063660
98.511355,0.388323,-2.618003,-5.953096
98.544666,1.328530,-2.707639,-7.072425
98.578001,1.341699,-3.179464,-6.560197
98.611355,2.176557,-2.864166,-9.367050
