time_tick,gyr_X_value,gyr_Y_value,gyr_Z_value
-0.012634,0.095887,-0.025826,0.050053
0.017363,0.095907,-0.029030,0.060720
0.047362,0.097997,-0.032228,0.051086
0.087335,0.095818,-0.034348,0.037185
0.127349,0.096863,-0.036481,0.032899
0.147355,0.095799,-0.035412,0.031836
0.187346,0.095745,-0.034336,0.012610
0.217345,0.094662,-0.032197,0.004074
0.267347,0.092487,-0.027918,-0.016202
0.297346,0.091383,-0.023642,-0.034343
0.327343,0.090319,-0.021507,-0.036467
0.357341,0.091448,-0.020453,-0.016161
0.387339,0.091545,-0.019403,0.014830
0.417337,0.091642,-0.017286,0.044759
0.457333,0.093832,-0.009834,0.056552
0.487350,0.090679,-0.005567,0.065124
0.517348,0.091753,-0.005571,0.068329
0.557334,0.092799,-0.003437,0.059793
0.587332,0.092769,-0.007698,0.054427
0.617331,0.090609,-0.009822,0.046937
0.657318,0.092707,-0.016221,0.043696
0.687331,0.092686,-0.019418,0.040473
0.727333,0.093747,-0.020486,0.040467
0.747324,0.093746,-0.021553,0.041529
0.787330,0.092671,-0.023682,0.040449
0.817328,0.093745,-0.024753,0.044717
0.867324,0.095857,-0.027955,0.042562
0.897320,0.099037,-0.031160,0.041475
0.927320,0.096887,-0.033285,0.037190
0.957299,0.096880,-0.034350,0.036116
0.987317,0.101132,-0.035425,0.035041
1.017315,0.097935,-0.034351,0.032910
1.047312,0.091523,-0.036466,0.027558
1.087297,0.096850,-0.030079,0.021181
1.117297,0.090464,-0.025798,0.016932
1.167304,0.089456,-0.026872,0.037227
1.197302,0.093745,-0.030086,0.051099
1.217300,0.095890,-0.031160,0.057503
1.257298,0.094831,-0.033292,0.061765
1.287296,0.094799,-0.032220,0.050018
1.317294,0.094764,-0.032214,0.038265
1.357290,0.093682,-0.029009,0.028667
1.387289,0.095813,-0.026881,0.026541
1.427285,0.093725,-0.026883,0.040432
1.467283,0.090553,-0.025813,0.046849
1.497262,0.093764,-0.024756,0.051128
1.527259,0.094823,-0.023691,0.047928
1.557251,0.094806,-0.024755,0.043648
1.587262,0.093731,-0.026884,0.042568
1.617260,0.094783,-0.026884,0.038294
1.647259,0.092650,-0.026879,0.037226
1.687252,0.093715,-0.027948,0.038289
1.737255,0.094797,-0.024753,0.040443
1.767263,0.095865,-0.024756,0.041511
1.797260,0.093732,-0.025817,0.041506
1.827258,0.096922,-0.026890,0.041499
1.857257,0.096902,-0.029020,0.037214
1.887255,0.094734,-0.029009,0.024393
1.917252,0.088333,-0.028993,0.020120
1.957231,0.097925,-0.027949,0.022261
1.987229,0.095790,-0.026877,0.019062
2.037245,0.089418,-0.026865,0.024406
2.067242,0.093712,-0.026881,0.036158
2.097240,0.101212,-0.027972,0.053245
2.127239,0.099093,-0.026902,0.055389
2.157237,0.086301,-0.025804,0.048987
2.197221,0.085245,-0.021536,0.046874
2.217232,0.090563,-0.019414,0.042610
2.257218,0.093774,-0.018357,0.046889
2.287217,0.092701,-0.020487,0.046878
2.327223,0.094829,-0.024758,0.051128
2.367199,0.094811,-0.029022,0.050036
2.387219,0.094804,-0.029021,0.047899
2.427215,0.094769,-0.030082,0.037208
2.457192,0.093692,-0.027944,0.030810
2.487194,0.092640,-0.022610,0.028702
2.517193,0.094789,-0.020485,0.032987
2.547193,0.089496,-0.017278,0.039417
2.577188,0.091648,-0.016220,0.045833
2.617204,0.091668,-0.016223,0.052244
2.667201,0.091666,-0.013023,0.047987
2.697180,0.092722,-0.011957,0.043719
2.727178,0.090582,-0.013017,0.041577
2.757183,0.091647,-0.013020,0.041577
2.797192,0.094845,-0.017294,0.047963
2.827190,0.093769,-0.020490,0.047946
2.857188,0.094813,-0.024756,0.045785
2.887184,0.095857,-0.027955,0.042562
2.927182,0.095830,-0.031150,0.037202
2.967180,0.094738,-0.033277,0.030780
2.997178,0.093677,-0.033275,0.031849
3.027172,0.094755,-0.031146,0.033997
3.057174,0.094765,-0.030081,0.036140
3.087172,0.093724,-0.027949,0.041494
3.117171,0.094786,-0.027951,0.040425
3.157167,0.094796,-0.025820,0.041506
3.187150,0.092671,-0.023682,0.040449
3.237160,0.092685,-0.021551,0.042598
3.267135,0.094822,-0.019424,0.042609
3.297131,0.091628,-0.018350,0.041547
3.327153,0.090574,-0.016216,0.042628
3.357152,0.092710,-0.015155,0.043702
3.387140,0.092710,-0.015155,0.043702
3.427149,0.091649,-0.015153,0.044770
3.457147,0.091646,-0.015153,0.043702
3.487120,0.093778,-0.016225,0.045832
3.517142,0.092709,-0.017288,0.045827
3.567120,0.095885,-0.022626,0.045797
3.587140,0.092681,-0.023684,0.043655
3.617127,0.093720,-0.029015,0.041488
3.647132,0.094774,-0.031149,0.040408
3.687122,0.096866,-0.036481,0.033967
3.727128,0.096849,-0.038612,0.030750
3.757127,0.095782,-0.036476,0.027557
3.787123,0.095793,-0.034344,0.028637
3.827109,0.094753,-0.030079,0.031866
3.867117,0.093728,-0.025817,0.040437
3.897116,0.093756,-0.021555,0.044735
3.927115,0.093767,-0.019423,0.045815
3.957113,0.092709,-0.018355,0.046889
3.987110,0.092723,-0.016224,0.049038
4.017108,0.092719,-0.017290,0.049032
4.057105,0.093771,-0.023690,0.052202
4.087083,0.096949,-0.030095,0.054303
4.117094,0.097977,-0.040758,0.054244
4.157098,0.097906,-0.054613,0.046689
4.197096,0.101000,-0.068471,0.029517
4.227094,0.103062,-0.075931,0.015585
4.257092,0.105137,-0.083393,0.005927
4.287089,0.104040,-0.089786,0.002687
4.327087,0.107216,-0.101523,0.010101
4.357085,0.108316,-0.106865,0.028235
4.387082,0.102011,-0.124998,0.077287
4.427054,0.140779,-0.132624,0.232163
4.467053,0.078405,-0.099315,-0.013386
4.497052,0.115139,-0.115310,-0.172684
4.527050,0.118308,-0.139847,-0.152519
4.557049,0.131732,-0.212518,0.148385
4.587042,0.174831,-0.280967,0.398020
4.617068,0.165589,-0.302336,0.536805
4.647044,0.228545,-0.284366,0.561463
4.687061,0.139676,-0.247818,0.353335
4.717054,0.121218,-0.201850,0.180501
4.767057,0.119940,-0.117544,0.011078
4.797055,0.110162,-0.098289,-0.076427
4.817052,0.095201,-0.092913,-0.100969
4.857050,0.099435,-0.072652,-0.132913
4.897025,0.094383,-0.078018,-0.035711
4.927023,0.109581,-0.089834,0.075341
4.957040,0.129892,-0.105893,0.121192
4.987013,0.126841,-0.115510,0.179905
5.037038,0.139764,-0.129430,0.245002
5.067037,0.135522,-0.132624,0.254602
5.087033,0.150455,-0.136928,0.268464
5.117031,0.116253,-0.136830,0.224666
5.157030,0.016239,-0.070482,0.171631
5.187028,0.101326,-0.042925,0.108723
5.217026,0.051098,-0.012914,0.011670
5.247024,0.113934,-0.022658,0.028697
5.277019,0.089489,-0.019410,0.039405
5.316993,0.097099,-0.036520,0.111965
5.366986,0.124772,-0.064315,0.140654
5.396984,0.123803,-0.063262,0.171646
5.426983,0.117414,-0.058980,0.166328
5.456982,0.132397,-0.025959,0.153685
5.487007,0.054652,0.016886,0.097310
5.517031,0.030445,0.134230,0.055222
5.547028,0.031542,0.096888,0.109508
5.587024,0.084222,0.056327,-0.029627
5.627022,0.053100,0.091463,0.203498
5.657020,0.092558,0.057230,0.264203
5.687019,0.073745,0.039256,0.047211
5.727016,0.106682,-0.030142,0.104518
5.757014,0.093157,-0.138965,0.336849
5.787013,0.189520,-0.183179,0.923169
5.827008,0.150003,-0.254538,0.965525
5.857007,0.201498,-0.251518,1.091608
5.886998,0.202126,-0.249314,0.943104
5.937002,0.184912,-0.228979,0.859879
5.967000,0.159148,-0.175552,0.727690
5.996997,0.117068,-0.161499,0.525837
6.026995,0.103136,-0.099585,0.423608
6.056993,0.052738,-0.063146,0.262482
6.086992,0.032293,-0.033198,0.155806
6.116982,0.009939,0.016986,0.099458
6.176985,-0.037141,0.089665,-0.062538
6.186984,-0.029663,0.101377,-0.067817
6.226969,-0.048729,0.114204,-0.049578
6.266976,-0.019989,0.123741,-0.063423
6.296974,-0.054141,0.122764,-0.089063
6.316973,-0.056209,0.130226,-0.077269
6.356951,-0.098209,0.073864,-0.170525
6.386973,0.033360,0.060843,-0.308460
6.416965,-0.043594,0.041864,-0.384407
6.446958,0.122372,-0.010755,-0.367640
6.486963,-0.080067,0.035591,-0.467773
6.526934,0.046183,0.172808,-0.423241
6.556958,-0.114289,0.208320,-0.363174
6.586931,-0.024027,0.330650,-0.230033
6.626930,0.022084,0.282317,0.291100
6.656941,-0.008445,0.192727,0.511787
6.686924,-0.003044,0.097767,0.648027
6.716926,0.054895,-0.071864,0.637465
6.746925,0.236266,-0.171359,0.519344
6.786938,0.233438,-0.102970,0.206661
6.836920,-0.068187,0.147538,-0.541952
6.866919,0.074866,0.164221,-0.435048
6.896917,-0.019740,0.142900,-0.002415
6.926916,0.207484,0.029248,0.274707
6.956908,-0.033883,-0.050264,0.477335
6.986927,0.163560,-0.043318,0.624774
7.026898,-0.060192,0.025479,0.492716
7.056924,0.030910,0.028550,0.333510
7.086921,0.141606,0.045374,0.301523
7.116919,0.042267,-0.017284,0.268079
7.156917,-0.038821,-0.086408,0.292293
7.196896,0.175518,-0.063478,0.374640
7.236911,0.108434,-0.073993,0.385283
7.256904,0.079413,0.012344,0.549239
7.286881,0.110460,-0.030421,0.655843
7.326906,0.080954,-0.057072,0.789262
7.346901,0.122405,-0.064620,0.773184
7.386901,0.283794,-0.062776,0.620365
7.416900,0.103980,-0.085859,0.689731
7.466896,0.285205,-0.009677,1.029878
7.496893,0.167803,-0.132927,0.723648
7.526892,0.116390,-0.129561,0.617901
7.556890,0.187275,-0.127513,0.464036
7.586887,0.276106,-0.151080,0.288658
7.616885,0.239447,-0.177589,0.166716
7.646884,0.115704,-0.199673,0.114269
7.686870,0.118473,-0.193209,-0.035281
7.716864,0.133463,-0.121788,-0.090452
7.766853,0.105156,-0.180290,-0.230736
7.796873,0.095422,-0.163176,-0.301158
7.826871,0.108297,-0.106687,-0.333973
7.856868,0.023875,-0.091513,-0.454606
7.886866,0.103268,-0.087349,-0.613803
7.916864,0.050965,-0.106410,-0.635265
7.956860,0.119105,-0.075629,-0.672508
7.986859,0.079044,-0.083071,-0.530434
8.026857,0.109067,-0.018280,-0.179628
8.066855,0.098953,-0.050346,0.036028
8.096840,0.104282,-0.161294,0.166837
8.126850,0.177097,-0.160459,0.303588
8.156830,0.123344,-0.158120,0.128386
8.186835,0.045881,-0.182347,-0.111065
8.216844,-0.075013,-0.101979,-0.398011
8.256833,0.165978,0.039464,-0.797965
8.306831,-0.001617,-0.077248,-1.161845
8.336830,-0.050984,-0.102674,-1.262408
8.366824,0.079687,-0.091186,-1.373496
8.396816,0.093341,0.168910,-1.382755
8.426826,0.016950,0.229838,-1.363169
8.456828,0.072722,0.236046,-1.234933
8.486826,0.166986,0.206940,-1.011806
8.516824,-0.012505,0.140069,-0.783480
8.546822,0.091447,0.077857,-0.486813
8.586793,0.068719,0.232288,-0.077806
8.636816,0.344200,0.327541,0.071169
8.656814,0.163197,0.178612,0.245621
8.696811,0.232033,0.233811,0.412589
8.726809,0.337779,0.122582,0.654493
8.756807,0.147500,0.042959,0.850698
8.786806,0.053531,0.098683,0.695031
8.816803,0.156876,0.083506,0.734456
8.856793,0.132182,-0.007073,0.771361
8.886798,0.185058,-0.012467,0.656993
8.936795,0.114889,-0.075260,0.764579
8.966792,0.199791,-0.110606,0.713078
8.996791,-0.029569,-0.170818,0.635873
9.026788,0.211987,-0.083871,0.487777
9.056787,0.230677,-0.049701,0.289226
9.086784,0.244982,0.000500,0.029861
9.126781,-0.085640,-0.220360,-0.253348
9.146766,-0.176550,-0.076261,-0.201248
9.176765,-0.197571,-0.169952,-0.356686
9.216775,-0.023749,-0.049852,-0.406285
9.266769,0.038487,0.019263,-0.325785
9.296743,-0.030061,0.008642,-0.092902
9.326753,0.040578,0.011623,0.025697
9.356758,0.290228,0.057912,0.139150
9.386757,0.038154,-0.020499,0.320417
9.446755,0.059531,-0.028027,0.356699
9.456759,0.077444,-0.076038,0.350020
9.486757,-0.000267,0.016936,0.246908
9.536754,0.038325,0.014848,-0.019160
9.566730,0.195519,0.015624,-0.149546
9.596748,0.128621,-0.034214,-0.387003
9.626746,0.105579,0.027643,-0.331097
9.656746,0.263523,0.063495,-0.251871
9.686740,0.074455,-0.024689,0.003052
9.716738,0.091197,0.022081,0.206313
9.756726,0.107550,0.044382,0.307936
9.786725,0.145031,0.009061,0.420990
9.816724,-0.017968,-0.003356,0.403865
9.856731,0.193831,-0.079554,0.464298
9.896729,0.350429,-0.055387,0.463326
9.926728,0.170643,-0.047540,0.506150
9.956726,0.061646,-0.113365,0.451322
9.986723,-0.057570,-0.109902,0.458849
10.016721,0.290095,-0.136377,0.676588
10.056714,0.037922,-0.182771,0.787513
10.086713,-0.130028,-0.151505,0.844353
10.116711,0.464112,-0.176313,0.878266
10.156712,0.342623,-0.192022,0.860045
10.196708,0.131726,-0.326828,0.634977
10.226706,0.040940,-0.280709,0.486735
10.256704,0.459620,-0.204715,0.121639
10.286689,-0.126273,-0.356601,-0.508382
10.316686,0.148287,-0.314353,-0.961244
10.346687,-0.039554,-0.226388,-1.212873
10.376677,-0.047309,-0.120719,-1.436668
10.436683,0.234056,0.105631,-1.252783
10.466682,0.253833,0.083085,-1.022124
10.496681,0.019221,0.007764,-0.701943
10.526688,0.245200,0.123307,-0.395781
10.556692,0.124680,0.117037,-0.100890
10.586690,0.014435,0.165206,0.006247
10.616688,0.248692,0.138009,0.042370
10.656667,0.135978,0.043304,0.202145
10.686681,0.120733,0.044460,0.087830
10.726680,0.046923,0.009482,0.013931
10.756678,0.199578,-0.038928,0.202747
10.796676,0.047297,-0.017247,0.169780
10.826674,0.225234,-0.051628,-0.103978
10.856672,-0.081640,-0.097833,-0.126597
10.886669,0.015515,-0.102187,-0.389486
10.916668,0.273609,0.053964,-0.428222
10.956655,0.036735,-0.097955,-0.419385
10.986653,0.126116,0.116081,-0.331684
11.016661,-0.027408,0.005525,-0.270284
11.066658,0.158136,0.010395,-0.182688
11.096656,0.223431,0.045391,-0.107718
11.126654,0.148915,0.024223,-0.077900
11.156651,0.120136,-0.018375,-0.038594
11.186650,0.173235,0.007129,-0.114328
11.216646,0.029484,0.071456,-0.193006
11.246629,0.012082,-0.008446,-0.222290
11.276627,0.122992,0.077676,-0.263513
11.316639,-0.167373,0.059254,-0.494333
11.366609,0.080744,0.096024,-0.526244
11.396630,0.245890,0.140434,-0.540998
11.426624,-0.095575,0.207286,-0.512769
11.456613,-0.018470,0.271040,-0.438713
11.486618,0.282217,0.235092,-0.253069
11.516612,0.346302,0.227448,-0.177266
11.546616,0.019817,0.267586,-0.093627
11.586599,0.066015,0.259947,0.053768
11.636613,0.279487,0.230580,0.262975
11.666611,0.308910,0.172977,0.199612
11.696610,0.170561,0.268212,0.111486
11.726590,-0.254697,0.220173,0.024777
11.756609,0.372069,0.251713,0.221399
11.786608,-0.045267,0.176912,0.322591
11.816606,0.136390,0.241463,0.465008
11.856588,0.087947,0.211617,0.678548
11.886587,0.190357,0.162287,0.801126
11.936597,-0.009775,0.083797,0.905452
11.966596,-0.106964,0.005130,0.897563
11.996567,0.207784,-0.111780,0.894709
12.026591,0.125758,-0.092388,0.858507
12.056590,0.224242,-0.141589,0.736409
12.086588,0.207742,-0.157465,0.578193
12.126584,0.062583,-0.152813,0.454311
12.146556,0.381881,-0.179112,0.443406
12.186580,0.219999,-0.186208,0.438063
12.216578,0.081625,-0.136835,0.394560
12.266581,0.216498,-0.155215,0.299334
12.296577,0.094658,-0.186866,0.182726
12.326553,0.025239,-0.182408,0.106906
12.356552,0.071191,-0.165472,0.143316
12.386551,0.292802,-0.152129,0.176459
12.416539,0.195065,-0.176478,0.277853
12.446547,-0.123252,-0.194968,0.313086
12.486560,0.022790,-0.231593,0.413286
12.516559,0.197948,-0.293769,0.310330
12.566553,0.003479,-0.255884,0.037057
12.596551,0.152649,-0.279529,-0.255867
12.626550,0.059640,-0.247257,-0.419143
12.656549,0.350847,-0.162491,-0.695478
12.686547,-0.001976,-0.201099,-0.782152
12.716545,-0.000924,-0.136032,-0.861929
12.756520,0.179464,0.024558,-0.899554
12.806541,-0.012321,0.065371,-0.635374
12.816518,-0.075081,0.063369,-0.612932
12.866534,0.102176,0.089553,-0.472862
12.896532,0.092647,0.158725,-0.179720
12.926531,0.055550,0.138514,-0.099687
12.956527,0.013690,0.221690,0.047159
12.986527,0.030714,0.108585,0.174749
13.016524,0.236589,0.182726,0.215709
13.056509,0.191809,0.167904,0.212433
13.086519,0.114403,0.123224,0.371407
13.126516,0.153102,0.119877,0.498527
13.166513,0.109728,0.059127,0.662747
13.196512,0.087215,0.014402,0.663575
13.226510,0.111271,-0.015448,0.553353
13.256509,0.237339,-0.007094,0.331128
13.286505,0.016734,-0.046031,0.308529
13.316495,0.214880,-0.032627,0.327788
13.356496,0.248788,-0.059344,0.304127
13.386495,-0.066410,-0.056495,0.289259
13.426496,-0.069853,-0.146047,0.310137
13.466493,0.244396,-0.115846,0.325187
13.486490,0.272914,-0.113739,0.246125
13.526471,0.135966,-0.173056,0.094110
13.556473,0.079521,-0.098259,0.002646
13.586486,-0.068739,-0.132016,-0.045585
13.616477,0.358371,-0.113802,-0.016738
13.646469,0.080515,-0.124917,0.009979
13.686467,0.093366,-0.104691,0.011155
13.736466,0.015581,-0.071439,-0.047409
13.766465,0.216365,-0.070750,-0.199175
13.796471,0.028049,-0.047949,-0.177635
13.826469,0.182485,-0.057905,-0.149947
13.856467,0.142102,-0.070627,-0.109405
13.886465,-0.016104,-0.017009,-0.024664
13.916463,0.165987,-0.017422,-0.017231
13.946461,0.096139,0.012532,0.089797
13.986455,0.127001,-0.056869,0.165269
14.036455,0.171210,-0.046393,0.338407
14.066453,0.029076,-0.047054,0.164278
14.096451,0.195941,-0.048447,0.065932
14.126449,-0.075323,-0.079877,0.184423
14.156447,-0.054075,-0.110851,0.204549
14.196431,0.252165,-0.110407,0.068783
14.226436,0.021038,-0.085340,0.013416
14.256429,0.245196,-0.109229,-0.126737
14.286428,0.081460,-0.090765,-0.069968
14.326434,-0.014204,-0.099110,-0.005884
14.356432,-0.019282,-0.061805,0.032787
14.386431,0.093387,-0.075894,-0.015398
14.426429,0.105976,-0.112159,-0.035901
14.456425,0.064607,-0.121691,0.027096
14.486405,0.046621,-0.089669,0.028345
14.526420,0.074058,-0.128091,-0.009269
14.556419,0.062077,-0.136553,-0.089448
14.576401,0.154666,-0.100487,-0.145900
14.616414,-0.036607,-0.109544,-0.363871
14.646413,0.020064,-0.052110,-0.350747
14.696382,-0.000376,-0.042430,-0.431893
14.706409,0.165742,-0.042807,-0.425523
14.756385,0.268924,-0.005689,-0.501205
14.786392,-0.086238,0.060103,-0.423829
14.826401,0.072959,0.168455,-0.365575
14.846400,-0.070069,0.080301,-0.380984
14.886396,-0.017017,0.121637,-0.135022
14.936386,-0.000118,0.108822,-0.166082
14.966391,0.242138,0.222319,-0.111024
14.996389,0.226289,0.224468,-0.072544
15.026388,0.114895,0.133984,0.167390
15.056386,0.201827,0.130475,0.401343
15.096364,0.004491,0.055244,0.368923
15.126363,0.112366,0.128547,0.396012
15.156369,0.021485,0.087213,0.317808
15.186361,0.059634,0.057290,0.291991
15.236374,0.186804,0.012301,0.144266
15.266372,-0.100754,0.004429,0.127196
15.296370,0.152840,-0.008974,0.205059
15.326368,0.042425,0.004023,0.295977
15.356365,0.227791,-0.008144,0.343946
15.386363,0.031367,-0.075886,0.251733
15.426360,0.055684,-0.099379,0.221681
15.446334,-0.008277,-0.067222,0.158834
15.486375,0.116596,-0.070577,-0.093372
15.516372,0.189344,0.007070,-0.068388
15.566364,-0.042788,-0.032938,-0.027951
15.596362,-0.034237,-0.050030,0.002939
15.626347,0.155673,0.009213,0.063053
15.656354,0.123952,0.015648,0.129341
15.686351,0.004589,0.007402,0.101544
15.716343,0.036571,-0.015077,0.140946
15.756357,-0.044907,-0.094803,0.047570
15.786355,0.116233,-0.061092,0.129989
15.816352,0.211787,-0.016462,-0.012962
15.856337,0.064842,-0.054529,0.027465
15.896318,0.094732,-0.025809,0.020136
15.926340,0.041180,-0.049104,-0.057977
15.956333,0.131823,-0.023730,-0.040763
15.996316,0.119045,-0.039702,-0.022684
16.026315,-0.132289,-0.051927,-0.026966
16.056314,-0.189522,-0.049708,0.058537
16.086312,0.126838,0.014626,0.027830
16.136326,-0.107372,-0.000852,0.056649
16.146325,0.248341,-0.007002,0.093927
16.176317,0.003417,-0.078979,0.166245
16.226324,0.045678,-0.121688,0.106167
16.256322,0.057309,-0.086500,0.037976
16.286321,-0.064190,-0.075540,-0.014290
16.326318,0.293235,-0.085891,-0.111662
16.356316,0.020597,-0.085266,-0.134032
16.386313,0.194195,-0.044064,-0.166969
16.416312,0.236878,-0.021775,-0.161514
16.466289,0.279698,0.004757,-0.115434
16.496281,-0.013055,0.005409,-0.099334
16.526279,0.128502,-0.048236,-0.054787
16.556278,0.052030,-0.035294,-0.006617
16.586277,0.096747,0.026473,-0.078944
16.616285,0.157002,-0.032259,-0.156210
16.656295,0.001661,-0.060728,-0.085811
16.686293,0.159719,0.050840,-0.056387
16.726291,-0.011033,0.129157,-0.279225
16.766288,0.055696,0.090664,-0.351040
16.796287,0.044564,0.105527,-0.174659
16.826284,-0.028660,0.156853,-0.152990
16.856282,0.047092,0.136390,-0.077259
16.886280,0.010497,0.198229,0.074811
16.916278,0.260834,0.154978,0.166402
16.956246,0.126974,0.114696,0.312592
16.986245,0.005664,0.106425,0.345697
17.036270,0.096429,0.107419,0.076428
17.066269,-0.028176,0.094904,0.080663
17.096266,0.221180,0.096442,0.147926
17.126264,-0.166291,0.178367,0.084360
17.156262,0.183937,0.154123,0.088417
17.186260,0.187795,0.122005,0.347877
17.226235,0.027551,0.007076,0.659275
17.256234,0.222729,0.011916,0.763964
17.286254,0.071101,-0.093273,0.740984
17.326249,0.189403,-0.179785,0.524651
17.366229,0.146825,-0.158182,0.147612
17.396244,0.171935,-0.183766,0.028866
17.426243,0.255758,-0.126306,-0.135382
17.456243,-0.119660,-0.111490,-0.362794
17.486240,0.067782,-0.063919,-0.402110
17.516209,0.140783,-0.010848,-0.264004
17.556216,0.118646,0.039124,0.108102
17.586211,0.203877,0.131551,0.373569
17.636230,0.165717,0.083608,0.486571
17.666203,0.029904,0.030501,0.706415
17.696226,0.041179,-0.082521,0.691901
17.726224,0.091068,-0.081541,0.639540
17.756222,0.262858,-0.107414,0.436349
17.786219,-0.047104,-0.152563,0.447927
17.816218,0.251924,-0.202277,0.450788
17.856211,0.142957,-0.194505,0.320505
17.886209,0.078770,-0.226311,0.256237
17.936209,0.335860,-0.193903,0.381364
17.966208,0.040926,-0.289065,0.136233
17.996205,0.064727,-0.355140,-0.016926
18.026203,0.210624,-0.265872,-0.111563
18.056202,0.029773,-0.357050,-0.309687
18.096170,0.263571,-0.340436,-0.477400
18.116197,0.211198,-0.180458,-0.375005
18.156167,-0.119035,-0.133820,-0.483653
18.186192,-0.250686,-0.079184,-0.421350
18.216190,0.176010,-0.085435,-0.502689
18.246188,0.025678,0.005430,-0.320515
18.276186,0.066923,0.027609,-0.084273
18.326183,0.169380,0.078539,-0.062648
18.356166,0.011510,0.004274,-0.072635
18.386155,0.102813,0.066871,0.122148
18.426176,0.065845,0.028505,0.266189
18.456175,0.277709,0.036564,0.250156
18.476146,0.138667,-0.047288,0.138607
18.536160,0.025566,-0.076861,0.093596
18.546151,0.224855,-0.042139,0.114041
18.596163,0.070731,-0.157929,-0.019049
18.626148,0.370643,0.059947,-0.031813
18.656160,-0.003776,-0.095898,-0.082798
18.686142,-0.072474,-0.060626,0.046696
18.716155,-0.197109,-0.183896,-0.185808
18.756153,-0.101533,0.000292,-0.128190
18.786150,0.192882,-0.034420,-0.260940
18.836149,0.350151,0.002436,-0.052425
18.866147,0.233801,-0.030321,-0.112411
18.896145,0.525940,0.090557,-0.119295
18.926142,0.085052,0.073431,-0.127832
18.956141,0.276645,0.000474,-0.063103
18.986139,0.086794,0.161850,-0.004473
19.016137,0.224378,0.027275,-0.125982
19.046135,0.093999,0.133074,-0.053783
19.086129,0.214741,0.058239,-0.180301
19.116128,-0.106040,0.151637,-0.031195
19.166126,0.188604,0.274581,0.084805
19.196124,-0.111185,0.118377,0.422720
19.226123,0.393399,0.139482,0.719749
19.256121,0.381986,0.044699,0.573920
19.286118,0.066643,0.136999,0.762552
19.316117,0.000108,-0.083394,0.488898
19.356097,0.402068,-0.091683,0.327419
19.386087,0.059990,-0.017262,0.141997
19.436109,0.113873,-0.102474,-0.254885
19.466107,-0.131178,-0.080562,-0.333772
19.496105,0.008468,0.027898,-0.404796
19.526103,0.127267,0.020238,-0.546973
19.556100,-0.042774,0.097370,-0.530481
19.586098,0.176401,0.083036,-0.568008
19.616095,0.026675,0.208109,-0.579038
19.646094,0.261888,0.317288,-0.381897
19.676090,0.144415,0.266235,-0.084048
19.716081,-0.145343,0.265670,0.222667
19.766087,-0.259694,0.326448,0.722001
19.796055,-0.235142,0.319808,1.106605
19.806059,0.136741,0.326389,1.195236
19.856052,0.102537,0.228178,1.621021
19.896076,0.259380,0.044301,1.943718
19.916076,0.282182,-0.094317,1.897006
19.956073,0.326475,-0.191415,1.867614
19.986071,0.133063,-0.349626,1.463979
20.036068,0.203626,-0.390016,0.896386
20.046068,0.502156,-0.488715,0.789995
20.096064,0.415434,-0.698578,0.874339
20.126062,0.350274,-0.770756,0.532049
20.156061,0.308860,-0.677704,0.105185
20.186059,0.289201,-0.771272,-0.306684
20.226052,0.191678,-0.750682,-0.541609
20.256042,0.214893,-0.665365,-0.711032
20.286051,0.211204,-0.581007,-0.974478
20.336048,-0.039292,-0.481370,-0.828559
20.346047,0.047962,-0.500758,-0.824413
20.396045,-0.094727,-0.400341,-0.589833
20.426042,-0.022572,-0.358862,-0.721043
20.456040,0.061855,-0.250301,-0.742904
20.486051,-0.039217,-0.209553,-0.764026
20.526048,0.072653,-0.191683,-0.760749
20.556046,0.029059,-0.153194,-0.785101
20.576045,0.058721,-0.109502,-0.886372
20.626034,0.084740,0.003431,-0.862252
20.666032,0.157749,0.003167,-0.659262
20.696031,0.213399,-0.018338,-0.539726
20.726030,0.128646,0.072451,-0.502879
20.756029,0.144768,0.074523,-0.454790
20.786028,0.171882,0.075447,-0.290248
20.816026,0.087030,0.115052,-0.226971
20.856026,0.110646,0.038341,-0.429338
20.886024,0.067157,0.105613,-0.452464
20.926004,0.142338,0.125779,-0.614778
20.966018,0.188817,0.211961,-0.482894
20.976019,0.121574,0.170539,-0.489516
21.026015,0.031008,0.243113,-0.239075
21.056013,0.272471,0.220207,-0.290545
21.086010,0.195404,0.277873,-0.137419
21.126009,0.214862,0.231914,0.014045
21.155997,0.128398,0.173477,0.008402
21.185997,0.172956,0.159536,-0.029081
21.226001,0.182171,0.153176,-0.144512
21.245993,0.253932,0.221212,-0.082185
21.295997,0.008794,0.188738,-0.127180
21.325996,0.122487,0.110652,-0.114815
21.355994,0.040751,0.109729,-0.030392
21.385992,0.092747,0.084040,-0.059394
21.415971,0.060868,0.133169,-0.095444
21.455986,-0.011693,0.435056,-0.143985
21.485983,0.894088,-0.201085,-0.576151
21.525981,-0.081543,0.347675,0.099161
21.565978,0.380534,0.067516,-0.293547
21.575978,0.232045,0.091223,-0.128838
21.625961,0.085151,0.181149,-0.220197
21.655962,0.167491,0.195839,-0.118631
21.685960,-0.351537,0.155314,0.117400
21.725968,0.056631,0.188643,-0.152835
21.755967,0.183203,0.067844,-0.056299
21.785965,0.016826,0.139382,0.479434
21.835961,0.045567,-0.016242,0.302275
21.845961,0.038203,0.008293,0.303480
21.895957,0.026147,0.080912,0.104080
21.925955,0.151562,0.002973,-0.236150
21.955954,-0.044990,0.046013,-0.143979
21.995932,-0.043479,0.049312,-0.354449
22.015949,0.139699,0.072359,-0.367187
22.055930,0.079797,0.049964,-0.077742
22.085929,0.174817,0.037974,0.022605
22.135941,0.325660,0.247654,0.017311
22.165939,0.290222,0.168848,0.008338
22.195938,-0.031272,0.061828,0.152069
22.225936,0.015623,0.072382,0.155321
22.255933,0.096380,0.098894,0.069971
22.295914,0.049345,0.095830,0.011200
22.315929,-0.169043,0.142209,-0.081450
22.355918,-0.135461,-0.110416,-0.307224
22.385917,-0.207403,0.184967,-0.141040
22.425921,0.183744,0.131930,-0.305968
22.465919,0.030394,0.139572,0.031745
22.495917,0.268260,0.254167,0.041935
22.525914,0.256478,0.164604,0.122649
22.555894,-0.432397,0.206512,0.433966
22.585891,-0.129685,0.183552,0.213664
22.615892,0.128654,0.143392,0.484772
22.645891,-0.248485,0.040809,0.530241
22.685886,0.099553,-0.078180,0.268800
22.715901,-0.114703,-0.004231,0.457307
22.755888,0.302393,0.063144,0.284487
22.795897,0.032275,-0.061995,0.183427
22.805869,0.079510,-0.004564,0.245703
22.855894,0.190674,0.072983,0.299526
22.895890,0.181898,-0.042157,0.346976
22.915890,0.110682,-0.036683,0.381214
22.955885,0.506668,0.004217,-0.054589
22.985883,0.218523,-0.018667,0.105623
23.035882,0.148939,0.046619,-0.095941
23.065879,0.049832,-0.031011,-0.034373
23.095878,-0.255261,-0.018671,0.114284
23.125853,0.278998,0.011099,-0.001074
23.155874,0.294408,-0.002885,0.183690
23.185870,0.045881,0.043440,0.337862
23.225852,0.208252,-0.006972,0.217879
23.255867,0.214237,0.062240,0.358227
23.285849,0.279548,0.012966,0.536374
23.315862,0.265212,-0.086122,0.486683
23.345860,0.204319,-0.116886,0.454475
23.395858,0.144592,-0.077267,0.374572
23.425855,0.466739,-0.117383,0.264223
23.455839,-0.006740,-0.096104,0.349930
23.485850,0.164331,-0.113498,0.252563
23.515819,0.102490,-0.076011,0.180128
23.545824,0.079960,-0.046065,0.088410
23.585820,0.194079,0.001647,0.097193
23.635820,0.227720,-0.099693,0.070985
23.665819,0.160919,-0.114521,0.180971
23.695818,0.066601,-0.064248,0.271021
23.725806,0.298518,-0.051938,0.190899
23.755815,0.084828,-0.004575,0.243564
23.795832,0.134598,-0.081444,0.242062
23.825830,-0.001530,-0.047029,0.255105
23.855827,0.279496,-0.150053,0.352770
23.885825,0.147498,-0.124160,0.332643
23.925808,0.094844,-0.142096,0.192588
23.955808,0.126916,-0.130456,0.222562
23.995805,0.232975,-0.146627,0.102780
24.025814,0.114242,-0.135778,0.263137
24.055803,0.158103,-0.156178,0.355971
24.095786,-0.313571,-0.081515,0.271016
24.115784,-0.033819,-0.199435,0.316246
24.155783,0.547003,-0.271058,0.223826
24.185800,0.015484,-0.233559,0.108764
24.215781,0.022194,-0.313453,-0.046604
24.265794,0.000538,-0.241877,-0.250282
24.275799,0.134924,-0.147282,-0.283985
24.325777,0.110399,-0.169622,-0.270212
24.355793,0.182397,-0.144292,-0.078834
24.385792,0.275762,-0.174315,-0.154883
24.425789,0.075587,-0.108795,-0.232473
24.445786,-0.035938,-0.057388,-0.201178
24.485785,0.308249,-0.031542,-0.139147
24.535753,-0.101386,-0.018933,-0.056709
24.565752,0.049876,0.024449,-0.084286
24.595750,0.227847,0.065622,-0.078760
24.625749,0.124926,0.096729,0.004776
24.655748,0.044317,0.104326,0.099930
24.685773,0.060692,0.081823,0.261141
24.725769,0.022971,0.118075,0.422687
24.755767,0.184588,0.037746,0.441439
24.785765,0.036667,-0.012068,0.525609
24.835763,0.266936,-0.111660,0.380764
24.845762,0.033522,-0.151629,0.348546
24.895758,0.144622,-0.140031,0.101768
24.925757,0.432090,-0.011608,-0.051453
24.955755,0.193718,-0.133586,-0.221952
24.985752,-0.910301,-0.125960,0.164068
25.025748,-0.486546,-0.080870,-0.248212
25.055747,0.439440,-0.007516,0.264833
25.085746,-0.171742,-0.051828,-0.046188
25.115744,-0.333363,-0.036742,0.365292
25.165741,0.343844,-0.117032,0.113601
25.195739,0.094252,-0.193198,0.054476
25.225737,0.230678,-0.207396,0.117405
25.255735,0.057622,-0.163353,0.232014
25.295731,0.051906,-0.186743,0.128245
25.325730,0.105580,-0.214494,-0.049285
25.355728,0.266028,-0.170001,-0.210417
25.375726,0.055964,-0.205744,-0.272534
25.425700,0.145592,-0.182510,-0.236100
25.465715,0.063302,-0.186542,-0.333333
25.475692,0.066770,-0.143927,-0.291429
25.525706,0.211302,-0.126074,-0.403554
25.555704,0.190573,-0.061053,-0.289935
25.595683,0.094203,-0.170615,-0.343937
25.625678,0.131908,-0.077970,-0.304972
25.655680,-0.035960,-0.037118,-0.232052
25.685688,0.190133,0.038047,-0.196433
25.725696,0.102234,0.096835,-0.106338
25.765694,0.114000,0.077599,-0.065845
25.795693,0.166418,0.115841,-0.028251
25.825663,-0.093458,0.105773,-0.043203
25.855688,0.262834,0.061301,-0.123667
25.885686,0.062424,0.162952,0.034003
25.925682,0.157778,0.121214,-0.075232
25.955673,0.112500,0.147900,0.062757
25.985653,0.022908,0.068126,0.104010
26.035677,0.011200,0.070285,0.102956
26.045669,0.255279,0.101694,0.151152
26.095673,-0.218467,0.062217,0.218361
26.125670,0.119714,-0.023813,0.182548
26.155669,0.467418,0.065974,0.278052
26.185666,0.959294,0.073405,0.257675
26.225662,0.381443,0.007630,0.080086
26.255662,-0.178932,-0.113723,0.113743
26.285641,-0.310977,-0.048355,0.031862
26.325657,0.187481,-0.093238,0.137275
26.365653,-0.186627,-0.176600,0.105920
26.395629,0.179622,-0.079287,-0.014369
26.425638,-0.098598,-0.102074,-0.095631
26.455637,0.242129,-0.090043,-0.106330
26.485636,0.005792,-0.080983,-0.105156
26.515636,0.033412,-0.098102,-0.106325
26.555642,0.164683,-0.093115,-0.009099
26.585640,-0.056823,-0.087276,-0.029315
26.635630,0.100201,0.013797,-0.333309
26.645637,0.026721,-0.013769,-0.305663
26.695627,-0.188914,0.033568,-0.191026
26.725631,0.476509,0.002208,-0.167850
26.755629,-0.071525,0.001259,-0.064084
26.785621,0.131949,-0.054510,-0.318733
26.825623,0.109597,0.095766,-0.135195
26.855620,0.089527,0.146986,-0.141319
26.885594,0.225935,0.129592,-0.080545
26.935618,0.361671,0.194270,0.015940
26.945602,0.109905,0.091448,-0.027304
26.995585,0.190874,0.133750,0.295586
27.025609,0.175689,0.061296,0.286643
27.055582,0.121555,0.199884,0.537439
27.085581,0.305907,0.089750,0.360493
27.125595,0.103790,0.044308,0.474617
27.155603,0.172785,-0.094306,0.208859
27.185595,0.093097,-0.040820,0.202762
27.235571,0.167327,-0.094272,0.163985
27.265570,0.067122,-0.130294,0.165948
27.295593,0.053308,-0.106800,0.147917
27.325580,0.076899,-0.041813,0.127968
27.355561,0.100830,-0.172977,0.094119
27.385594,0.139737,-0.087825,0.187534
27.415583,0.038981,-0.189890,0.082287
27.445576,-0.098608,-0.237541,0.058552
27.485581,0.440270,-0.101172,-0.060495
27.515578,0.241887,-0.119870,-0.152438
27.565552,0.163251,0.001884,-0.242570
27.575575,0.158472,-0.122822,-0.271034
27.625572,0.131054,-0.080136,-0.232328
27.655570,0.182552,-0.019516,-0.172173
27.685568,0.044090,-0.029863,-0.175403
27.725565,-0.008451,0.089610,-0.081777
27.755563,0.068927,0.053225,-0.155720
27.785561,0.181906,0.062552,-0.127915
27.835558,0.099034,0.136310,-0.154202
27.845532,0.199081,0.111558,-0.138334
27.895554,0.112415,0.148981,0.032846
27.925553,0.081454,0.160798,-0.008752
27.955550,0.064904,0.232223,0.070711
27.995530,0.147812,0.179792,0.084293
28.025527,0.176678,0.224334,0.427508
28.055526,0.030568,0.215102,0.358042
28.075542,0.751703,0.234761,0.437045
28.135539,0.107545,0.053808,0.650965
28.145538,0.211984,0.059957,0.675548
28.195534,0.172399,-0.040191,0.728430
28.225532,0.072524,-0.157161,0.579295
28.255503,0.012574,-0.175106,0.491596
28.295528,0.019838,-0.201759,0.459394
28.315527,0.091915,-0.301069,0.466310
28.345525,0.132661,-0.312766,0.219421
28.385513,0.159443,-0.298812,-0.097842
28.415521,-0.488854,-0.252572,-0.108118
28.455494,-0.179462,-0.338530,-0.157814
28.495493,-0.128066,-0.310785,-0.449364
28.525502,0.307662,-0.254206,-0.432061
28.565510,-0.197631,-0.141141,-0.409951
28.595504,0.223755,-0.139916,-0.495521
28.625503,0.051082,-0.052203,-0.303743
28.655502,0.002060,-0.030752,-0.343146
28.685495,0.192991,0.043429,-0.315004
28.735498,0.308494,0.056952,-0.160030
28.755498,-0.047806,0.067291,-0.042357
28.795495,0.217471,0.154136,-0.091092
28.825461,0.138944,0.239604,-0.102357
28.855492,0.066722,0.216270,-0.014854
28.885490,0.204465,0.202029,0.132483
28.925460,0.271221,0.210290,0.370780
28.955459,0.070704,0.160664,0.312858
28.985481,0.313595,0.162229,0.354479
29.015480,0.180242,0.132705,0.301993
29.045455,0.385806,0.126897,0.331830
29.095476,0.140335,0.017502,0.620840
29.125474,0.185186,-0.026355,0.715682
29.155473,-0.105144,-0.032157,0.837524
29.185470,0.221846,-0.176740,0.688135
29.215468,0.187195,-0.273635,0.607476
29.245464,0.287157,-0.251440,0.540261
29.285463,0.123706,-0.406543,0.182580
29.335459,0.250121,-0.402338,-0.274729
29.345459,0.283777,-0.478080,-0.325371
29.395442,-0.020216,-0.421839,-0.571805
29.425426,-0.079748,-0.320385,-0.658847
29.455425,0.003670,-0.181964,-0.696571
29.495449,0.078339,-0.162955,-0.672978
29.515442,-0.216683,-0.145384,-0.367231
29.545420,0.027004,-0.130976,-0.430249
29.585444,0.111634,-0.018358,-0.033250
29.625416,0.085433,0.125635,-0.061301
29.655438,1.014352,-0.084188,-0.373598
29.685415,0.187427,0.015748,-0.363236
29.725436,-0.380431,-0.030916,-0.426397
29.755407,0.084676,0.016067,-0.542711
29.785421,0.057801,0.143997,-0.421265
29.825424,-0.038383,0.227299,-0.281884
29.855422,1.282089,0.648483,0.004328
29.895422,0.139471,0.435393,0.225535
29.915420,-0.229319,0.343530,0.534038
29.945412,0.085776,0.103002,0.435411
29.995418,-0.263101,0.129329,0.524321
30.025415,0.183791,0.189173,0.354658
30.055399,-0.436940,-0.010859,0.236175
30.085412,-0.350205,-0.006869,0.395377
30.115409,0.016211,-0.056610,0.146065
30.145408,0.114716,-0.110081,0.035695
30.175404,-0.070758,-0.095762,-0.050727
30.215403,0.481849,0.087353,0.094390
30.265391,0.085742,-0.158155,0.372004
30.295389,0.007368,-0.067379,0.405644
30.325388,0.330060,-0.090343,0.101997
30.365393,0.314970,-0.023253,0.318200
30.385370,-0.148072,-0.205525,0.214735
30.425388,-0.041419,-0.127751,-0.171647
30.455367,0.199302,-0.118533,-0.508219
30.485403,-0.205007,-0.078203,-0.457684
30.525401,0.270968,-0.004613,-0.531116
30.565398,0.157203,0.082910,-0.222891
30.595395,0.010909,0.089534,-0.016606
30.625394,0.243454,0.112406,0.100996
30.655392,0.151815,0.211651,0.317393
30.685390,0.328447,0.156871,0.342693
30.715389,0.217588,0.133674,0.327633
30.755373,0.139612,0.061357,0.328322
30.795383,0.097791,0.035899,0.258742
30.825381,0.042284,0.047781,0.197918
30.845370,0.195458,0.054927,0.140224
30.895376,0.081725,-0.045117,0.321340
30.925375,0.055565,-0.024691,0.094944
30.955373,0.010717,-0.034169,0.062849
30.985371,0.378341,-0.000911,0.120641
31.025368,0.036556,-0.107876,0.244077
31.045358,0.051046,-0.012014,0.349310
31.075365,0.118860,-0.063313,0.298794
31.125360,0.197020,-0.123120,0.157409
31.165342,-0.021470,-0.216460,0.193276
31.195343,0.031555,-0.161077,0.057873
31.205356,0.317861,-0.157437,0.017223
31.255338,0.235321,-0.124093,-0.206952
31.285337,0.024673,-0.100179,-0.177922
31.325348,-0.207716,-0.220146,-0.130445
31.355346,-0.125480,-0.144638,-0.134323
31.385345,0.036412,-0.129010,-0.135344
31.415343,0.093952,-0.052346,-0.209729
31.455329,-0.102625,-0.093570,-0.028270
31.495338,-1.738349,0.324751,0.102634
31.525327,-0.010896,-0.145004,0.085751
31.555334,0.084040,-0.051378,0.034957
31.585324,-0.074830,0.042885,-0.149331
31.625327,-0.214795,-0.294859,0.081770
31.655329,0.033785,0.150199,0.085226
31.695320,-0.022626,0.234765,-0.361982
31.715304,-0.293420,-0.008121,0.515025
31.765317,0.506544,0.224691,0.359050
31.775301,-0.062510,-0.085245,0.202554
31.825292,0.087187,-0.063111,0.032755
31.855307,0.113845,-0.021577,-0.002283
31.885288,-0.000012,-0.093866,0.105262
31.925309,0.211915,-0.054883,0.074440
31.945308,0.113548,-0.155929,0.054676
31.975289,-0.177534,-0.081605,-0.168155
32.025302,-0.210222,-0.013316,-0.141060
32.065300,-0.218894,-0.070873,-0.125348
32.095297,-0.293567,-0.092015,-0.147884
32.125268,1.351536,0.003643,-0.589025
32.155269,0.419953,0.148317,-0.023859
32.185296,0.118484,-0.023608,-0.228809
32.215268,0.557562,-0.000130,-0.120870
32.245267,0.442618,0.089548,0.146767
32.285287,0.876964,-0.697041,-0.028615
32.335281,-0.524615,0.067266,0.022932
32.365262,0.566622,-0.124866,-0.150406
32.395279,-0.539521,0.027833,0.068663
32.425278,0.518989,-0.070229,-0.475976
32.455276,-0.173712,0.294647,-0.040009
32.495272,0.138614,0.115924,-0.068846
32.515271,-0.174541,0.195409,0.153906
32.555268,0.217589,0.224343,0.222353
32.575268,0.827307,0.109963,0.229059
32.615266,-0.037576,0.219348,0.708538
32.665262,0.377738,0.047907,0.573939
32.675234,0.123104,-0.035761,0.617346
32.725258,-0.157339,-0.118087,0.218423
32.755257,0.126846,-0.034443,0.087395
32.795229,0.204797,-0.023989,0.150473
32.825228,0.218565,-0.126409,0.245000
32.845250,0.130359,-0.118771,0.292075
32.875249,-0.068751,-0.245083,0.082009
32.935244,0.060096,-0.318976,0.172392
32.965242,0.323085,-0.254501,0.096823
32.995242,-0.012028,-0.282417,-0.132971
33.025240,0.022919,-0.251531,-0.232176
33.055237,0.123648,-0.229288,-0.398758
33.085233,0.165879,-0.185590,-0.569482
33.115214,0.051316,-0.089401,-0.537941
33.145230,0.125139,-0.066159,-0.445943
33.195228,-0.064631,0.065336,-0.325507
33.225196,0.121665,0.021188,-0.285192
33.255195,-0.081047,0.097272,-0.155442
33.295222,0.450614,0.151483,-0.099710
33.325193,0.006623,0.215242,0.183889
33.355217,0.046770,0.177869,0.122771
33.385216,0.102350,0.207576,0.159249
33.425213,0.073376,0.294971,0.338170
33.455211,-0.065724,0.075660,0.364778
33.485209,0.303001,0.167403,0.722061
33.515207,0.203362,0.021768,0.329158
33.565205,-0.046415,0.100127,0.384140
33.595202,0.047109,-0.014191,0.459350
33.625201,-0.498701,0.212935,0.685106
33.665195,0.159447,-0.064492,0.342585
33.685197,0.048025,-0.216839,0.645217
33.725170,0.350145,-0.271701,0.264471
33.755181,0.032594,-0.178317,0.425329
33.785185,-0.108637,0.085410,0.245174
33.815188,-0.164407,-0.546417,-0.222000
33.865185,0.224122,-0.418207,-0.405163
33.895184,0.199535,-0.338309,-0.174998
33.925182,0.250217,-0.383154,-0.265008
33.955158,0.344610,-0.249079,-0.188432
33.985178,0.227772,-0.124060,-0.239004
34.015175,0.221018,-0.190119,-0.284241
34.055173,-0.089070,-0.085020,-0.134004
34.075162,0.157197,-0.231586,-0.215003
34.135160,0.094294,-0.078895,-0.420362
34.165164,-0.170699,-0.031385,-0.432860
34.195161,-0.171430,-0.010105,-0.346197
34.225162,0.312965,0.018682,-0.400646
34.255147,-0.008580,-0.015796,-0.358020
34.295159,0.057219,0.053426,-0.510446
34.315155,0.220883,0.154268,-0.374235
34.355154,0.166255,0.198003,-0.178453
34.385154,0.221466,0.086969,-0.101079
34.415151,-0.126349,0.236855,0.198998
34.455147,0.372686,0.233652,0.093084
34.485121,0.187287,0.313918,0.310467
34.515125,0.140946,0.183978,0.275573
34.565127,0.369624,0.209995,0.520340
34.595125,0.262888,-0.048751,0.377906
34.615138,-0.045240,0.001971,0.535322
34.655123,0.072126,-0.161361,0.451056
34.685119,0.355147,-0.301527,0.191650
34.735131,0.225723,-0.372606,0.076965
34.745131,0.054121,-0.336989,-0.024303
34.775129,0.170529,-0.227441,-0.034413
34.825127,0.086405,-0.182449,-0.089706
34.855125,-0.140748,-0.273613,-0.105112
34.885123,0.069620,-0.264412,-0.266449
34.915121,0.149493,-0.182460,-0.355768
34.945118,-0.013599,-0.161795,-0.442162
34.985116,-0.001658,0.080103,-0.291250
35.035114,0.032214,0.043792,-0.316032
35.045112,0.064650,0.086305,-0.200412
35.095084,0.062160,0.120504,-0.360493
35.125089,0.301102,0.147627,-0.245007
35.165083,0.057930,0.273936,-0.173736
35.195103,0.209476,0.311937,-0.099839
35.225101,0.345525,0.297803,-0.162989
35.245100,0.173901,0.232088,-0.153693
35.295097,0.252159,0.396986,0.188035
35.325095,0.061261,0.286531,0.213116
35.365093,0.059500,0.399368,0.560988
35.395091,0.181064,0.330972,0.345822
35.425090,0.129066,0.206258,0.549225
35.455087,0.033317,0.368422,0.742463
35.495096,0.076907,0.199973,0.560956
35.515098,0.688316,0.187888,0.657974
35.555080,0.281671,0.066121,0.828356
35.595093,0.158086,0.014320,0.507561
35.625090,0.167802,-0.090084,0.317867
35.665089,0.006917,-0.170772,0.375159
35.695087,0.142243,-0.088959,0.314674
35.725085,0.091409,-0.214583,0.196465
35.755082,0.150799,-0.120985,0.364714
35.785081,0.187305,-0.143343,0.136999
35.815080,0.203889,-0.197707,0.049083
35.845078,0.213254,-0.210493,-0.008687
35.905073,0.131455,-0.191139,0.030972
35.935069,0.131111,-0.169747,-0.108879
35.965046,0.111407,-0.269883,-0.172464
35.975059,-0.050044,-0.195982,-0.128213
36.025066,0.108096,-0.087628,-0.067821
36.065046,0.110489,-0.065276,-0.005727
36.095044,0.166176,-0.067588,0.104298
36.125043,-0.017704,-0.019226,0.154826
36.155043,0.323378,-0.128681,0.048365
36.195055,0.242931,0.019517,0.390039
36.225027,0.218641,-0.211582,0.013744
36.255052,0.119959,0.088148,0.134014
36.295050,0.495156,-0.005391,0.023359
36.325047,-0.138334,-0.125396,-0.182295
36.355047,0.503568,-0.147086,-0.202868
36.395025,-0.086532,0.042735,0.209674
36.425043,-0.165854,-0.138161,-0.112909
36.455019,0.180698,-0.089958,0.001599
36.485013,0.277908,-0.013428,0.019092
36.525036,-0.051626,0.010693,0.169957
36.565033,0.018241,-0.186559,-0.091849
36.595032,0.116380,-0.087783,0.209977
36.625030,0.135988,-0.102659,0.019704
36.665026,0.157332,-0.100582,0.033601
36.685025,0.080841,-0.049237,0.030696
36.725024,0.189125,-0.020628,-0.109142
36.745022,0.001861,0.000040,-0.089751
36.775020,0.137652,-0.114320,-0.122466
36.835016,0.325504,-0.033750,-0.063302
36.865014,0.138343,-0.022700,0.001979
36.895000,0.094876,-0.058900,0.106500
36.924993,0.210570,-0.071901,0.000623
36.954998,0.081730,-0.060943,-0.014244
36.984997,0.169329,-0.004654,0.017030
37.025004,0.145902,-0.029134,0.044681
37.055004,0.097495,-0.116412,-0.018827
37.085001,0.001748,-0.099143,-0.012298
37.124973,-0.080589,-0.088233,-0.142572
37.144997,0.062669,0.038284,-0.094898
37.194989,0.019142,-0.182267,-0.151660
37.224965,0.096476,-0.074817,-0.051720
37.254991,-0.073386,0.052420,-0.033885
37.294988,0.170425,0.077473,-0.067996
37.324986,0.125674,0.090379,-0.093558
37.354983,0.099785,0.000891,-0.101523
37.394982,0.104848,-0.021478,-0.162549
37.424981,-0.235594,-0.000489,-0.095040
37.454978,0.114004,0.026398,-0.005224
37.484972,0.036438,0.078814,-0.012397
37.524948,0.252604,0.109257,-0.040061
37.564947,0.229870,0.237022,0.397648
37.594956,0.224191,-0.000603,0.199746
37.624955,0.186920,0.019749,0.174224
37.654967,0.219995,0.079398,0.127531
37.694964,0.107933,0.106361,0.008038
37.724961,0.074606,0.027554,-0.007346
37.754959,0.214284,0.053874,0.028025
37.794933,0.144156,0.055074,0.075061
37.824956,0.096289,0.037041,0.111301
37.854949,-0.027891,-0.005412,0.292736
37.884949,0.331732,-0.180940,0.054487
37.924950,-0.097923,-0.089386,0.114926
37.954947,0.210354,-0.056932,-0.089045
37.984947,0.060028,0.038199,0.089947
38.034923,-0.059014,-0.043527,-0.100661
38.044942,0.180690,-0.040889,-0.057965
38.094940,0.311114,-0.113629,-0.153489
38.124938,-0.002779,0.076739,0.049572
38.154937,-0.066299,0.126957,0.112902
38.194933,0.055227,0.125592,0.163084
38.214933,0.245404,0.085764,0.072000
38.254930,0.049544,0.026463,0.158266
38.294927,0.117228,0.002919,0.032042
38.314923,0.220723,0.038917,0.062132
38.364910,0.194617,0.106093,0.155464
38.374894,0.040619,-0.033185,0.091696
38.424920,0.285377,-0.089182,0.112699
38.464890,0.047152,-0.044957,0.153600
38.494889,0.118166,-0.057864,0.060556
38.524888,0.004673,-0.027812,0.170800
38.544912,0.139858,-0.018511,0.147313
38.574911,0.052728,-0.160038,0.016203
38.624907,0.087997,-0.126005,0.020656
38.664905,0.123438,-0.117601,0.112581
38.694879,-0.107031,-0.022243,0.195432
38.724901,0.027780,-0.081147,0.126695
38.754899,0.818714,0.081194,0.237451
38.784879,0.258653,-0.078438,0.064684
38.824896,0.074175,-0.200645,0.114274
38.854893,0.213988,-0.111413,0.121142
38.884892,0.079704,-0.091889,0.056105
38.924887,0.069058,-0.261294,-0.101888
38.954886,-0.327665,-0.131576,0.245101
38.994884,0.266228,-0.071008,0.096777
39.024860,-0.131556,-0.023248,0.184748
39.064880,0.095074,-0.161160,-0.063948
39.094865,0.052442,-0.202658,-0.029975
39.124877,0.064604,-0.255918,-0.173445
39.154875,-0.006484,-0.153397,-0.209192
39.194872,0.107039,-0.149320,-0.349165
39.224871,0.065855,-0.133283,-0.253974
39.264869,0.210512,-0.093050,-0.349949
39.294866,0.141685,-0.072691,-0.246180
39.324865,0.032803,-0.004307,-0.063071
39.364865,0.041438,0.076722,-0.118188
39.394859,0.007857,0.143918,-0.032333
39.424835,0.155015,-0.009877,-0.134718
39.454832,-0.017574,0.074621,0.089097
39.494833,0.132718,-0.005571,-0.118662
39.534852,-0.021968,0.098120,0.016572
39.564849,0.041338,0.029805,-0.097076
39.594848,0.199304,0.091253,-0.040147
39.624846,0.159080,0.103039,0.025103
39.654844,0.129460,0.097740,0.095600
39.684842,0.222735,0.028265,0.035362
39.714840,-0.074893,0.056587,0.169146
39.744809,0.107987,0.016750,0.130419
39.784836,-0.002659,0.078853,0.086980
39.814835,0.050149,-0.029998,0.070342
39.854818,0.068816,0.055202,0.160557
39.894817,-0.031912,-0.061801,0.081940
39.924816,-0.008997,-0.004343,0.200849
39.954826,0.258535,-0.000550,-0.065241
39.994823,0.119003,-0.020494,-0.058906
40.014821,0.082043,0.053140,-0.042466
40.054818,0.084383,0.064834,0.014226
40.084818,-0.000095,-0.024518,-0.003340
40.124816,0.091232,-0.062018,-0.039896
40.144814,0.085662,0.072262,0.077306
40.194805,0.108704,0.061606,-0.038152
40.234809,0.008845,0.015927,0.090905
40.254803,0.074904,0.002970,0.120735
40.294804,0.146154,0.033758,0.055711
40.324804,0.159981,0.012395,0.075891
40.354800,-0.029353,0.018124,0.132596
40.384799,0.110756,-0.080255,0.101037
40.414798,0.060933,-0.019377,0.103520
40.464795,0.284600,0.044108,0.053598
40.494805,0.206601,-0.011139,0.026601
40.514803,0.231031,-0.058118,0.061597
40.554802,0.048185,-0.031087,0.126965
40.594780,0.139288,-0.070683,0.017742
40.624784,0.014827,0.014913,-0.043729
40.654784,-0.113114,-0.037038,-0.040778
40.694763,0.073015,-0.117425,-0.014553
40.724764,0.176431,-0.105947,0.017540
40.754763,-0.031717,0.009635,0.064168
40.784770,0.247933,-0.036801,-0.007740
40.814762,0.039636,0.034005,0.040779
40.854758,0.136058,-0.084537,0.021941
40.894779,-0.027495,-0.033036,0.101329
40.924778,0.198233,0.021922,0.038538
40.954777,0.167479,0.017705,0.084466
40.974773,0.051263,-0.002274,0.054467
41.024771,0.173445,-0.001440,-0.034240
41.064768,0.103423,0.070145,-0.033830
41.094739,0.210904,0.059245,-0.040326
41.124749,0.040485,-0.013962,0.024488
41.154764,0.181351,0.047536,0.060052
41.194762,0.150182,0.012453,0.003238
41.224760,0.049633,0.116049,0.083966
41.254759,0.115346,0.057283,0.051574
41.284756,0.188959,0.062427,0.094323
41.334740,0.062603,0.106388,0.159771
41.364739,-0.002164,0.059570,0.274923
41.394738,0.088263,0.030578,0.283290
41.424736,-0.075765,0.013890,0.283237
41.454735,0.247763,-0.006014,0.255271
41.494743,0.038148,-0.000231,0.294886
41.524717,0.098886,0.033758,0.271552
41.544740,0.077356,-0.008822,0.242474
41.594736,-0.022909,-0.055501,0.236899
41.634735,0.069732,-0.018377,0.196480
41.644734,0.246564,-0.018789,0.225284
41.694732,0.086758,-0.069614,0.252823
41.724728,0.218591,-0.144547,0.274817
41.754727,0.162436,-0.091132,0.305041
41.794705,0.131369,-0.094231,0.245198
41.814724,0.140684,-0.111275,0.175651
41.854722,-0.043893,-0.196132,0.148517
41.894718,0.029561,-0.190962,0.137844
41.934716,-0.015431,-0.173749,0.026829
41.964715,0.152880,-0.135741,0.009902
41.994712,-0.069527,-0.166194,0.086717
42.024710,0.138024,-0.157049,0.051459
42.054709,0.156190,-0.141100,0.054747
42.084707,0.129507,-0.153830,0.048273
42.114706,0.035655,-0.132260,-0.028516
42.144703,0.055537,-0.164248,-0.107762
42.174701,0.061980,-0.112004,-0.150215
42.234673,0.062823,-0.120502,-0.214370
42.244671,0.007431,-0.071306,-0.280331
42.294671,0.067031,-0.062903,-0.298463
42.324669,0.026429,-0.059588,-0.349722
42.364689,0.228961,0.009253,-0.352597
42.394681,0.074590,0.014931,-0.353597
42.414666,0.118191,0.047909,-0.410055
42.454683,0.027899,0.079011,-0.375672
42.484681,0.065263,0.046911,-0.305338
42.524661,0.037045,0.083154,-0.170506
42.554660,0.091584,0.040325,-0.041470
42.594656,-0.052406,0.043716,0.226767
42.604674,0.210702,0.084704,0.218382
42.654672,0.200373,0.010007,0.411366
42.694670,0.027386,0.028438,0.579257
42.714669,0.089840,-0.018577,0.511671
42.754666,0.064737,-0.020553,0.308658
42.784664,0.061793,-0.056680,0.078740
42.824661,0.103010,-0.039655,-0.044049
42.864660,0.188498,-0.022656,-0.316435
42.894657,0.116914,-0.050188,-0.366787
42.924655,0.030940,-0.041506,-0.286584
42.954653,0.093070,0.019094,-0.231774
42.994627,0.048702,-0.007531,-0.083393
43.024625,-0.021030,0.005337,0.082306
43.054624,0.145575,0.034746,0.217055
43.084623,0.177747,-0.011232,0.347147
43.134642,0.095990,-0.047352,0.465567
43.144641,0.057769,-0.020617,0.471066
43.194639,0.041471,-0.054661,0.401432
43.224636,0.164267,-0.068687,0.179085
43.254631,0.056449,-0.008664,0.015966
43.284633,0.019627,-0.015945,-0.182800
43.314631,0.071381,-0.002126,-0.338732
43.344628,0.039079,0.006539,-0.469029
43.384626,-0.006922,0.031212,-0.570387
43.424624,0.001838,0.016219,-0.472172
43.444623,0.069236,-0.013852,-0.330248
43.494619,0.160409,0.016766,-0.142052
43.534618,0.052388,0.028647,0.038610
43.564616,0.184819,0.077350,0.116844
43.594613,0.230440,0.090074,0.047453
43.624612,0.143273,0.078514,0.108312
43.654608,0.169849,0.084861,0.086972
43.684608,0.138508,0.032740,-0.007332
43.714579,0.088468,0.029652,-0.003063
43.754581,0.143833,0.097796,-0.082837
43.784575,0.097876,0.123528,-0.170298
43.814575,0.051209,0.121470,-0.107259
43.854576,0.083576,0.152261,-0.001320
43.894590,0.168269,0.127442,0.220764
43.924589,0.126571,0.120989,0.526319
43.954587,0.075180,0.065508,0.851908
43.994562,0.177814,-0.001101,1.425283
44.024561,0.135190,0.006292,1.760831
44.054564,0.152241,-0.053483,1.835291
44.084582,0.330279,-0.101922,1.967472
44.124556,0.300433,-0.245852,2.123752
44.164579,0.372175,-0.313106,1.981259
44.184575,0.179633,-0.270034,1.990090
44.214574,0.271885,-0.309471,1.552849
44.244573,0.344815,-0.283772,0.987756
44.294568,0.338335,-0.243925,0.199450
44.334539,0.346547,-0.264876,-0.590262
44.344567,0.503310,-0.333363,-0.784068
44.394539,0.258205,-0.259349,-0.585937
44.424553,0.121823,-0.234493,-0.646670
44.464536,0.125864,-0.069305,-0.556012
44.484551,0.153060,-0.089553,-0.695030
44.524557,0.117043,-0.055368,-0.673464
44.554554,0.110007,-0.097913,-0.840377
44.594551,0.015429,0.037914,-1.292637
44.614550,0.017276,0.061423,-1.414313
44.654544,0.009536,0.121047,-1.223797
44.694542,-0.048987,0.184998,-0.929604
44.724540,-0.060415,0.170044,-0.817494
44.754534,0.079119,0.171679,-0.445693
44.794523,0.020759,0.157736,-0.006617
44.814539,0.033891,0.177915,0.088584
44.854536,0.093140,0.154201,0.345939
44.894533,0.125187,0.110202,0.788034
44.914531,0.097949,0.092057,0.957826
44.964529,0.167256,0.017042,1.433932
44.994526,0.167131,-0.008713,1.777836
45.024525,0.167492,-0.091975,1.995345
45.054523,0.250918,-0.118892,2.152242
45.094511,0.230600,-0.178566,2.192520
45.124509,0.221409,-0.170967,1.958570
45.154508,0.183266,-0.141937,1.631789
45.194510,0.201132,-0.183364,1.245842
45.234513,0.235071,-0.231245,0.901525
45.264511,0.207044,-0.230058,0.785076
45.294508,0.162136,-0.096590,0.566785
45.324507,0.173314,-0.077503,0.721814
45.354505,0.229227,-0.210879,0.703973
45.384503,0.257821,-0.180159,0.972319
45.414501,0.255427,-0.266687,1.340464
45.444498,0.215572,-0.259230,1.533906
45.484522,0.195483,-0.219740,1.535197
45.534495,0.346280,-0.371484,1.579202
45.544498,0.361297,-0.398203,1.647434
45.594500,0.363096,-0.446154,1.592678
45.624499,0.449674,-0.364269,1.609134
45.664505,0.479925,-0.385393,1.068368
45.694489,0.443849,-0.391382,0.405896
45.724488,0.430938,-0.303688,-0.096865
45.754486,0.433500,-0.322615,-0.641886
45.794502,0.373484,-0.304282,-0.793493
45.824501,0.303035,-0.294494,-0.863941
45.854498,0.235768,-0.224977,-1.007786
45.894497,0.238552,-0.194157,-0.824910
45.924468,0.171753,-0.164360,-0.410166
45.954493,0.174742,-0.171975,-0.114244
45.994464,0.179407,-0.144494,0.345345
46.024467,0.215121,-0.177736,0.577011
46.054466,0.199872,-0.197021,0.840819
46.084465,0.282172,-0.277260,1.039093
46.134482,0.230015,-0.285503,0.698220
46.164480,0.172463,-0.208388,0.233876
46.194477,0.190216,-0.161262,-0.292622
46.224476,0.089301,-0.160723,-0.926194
46.264467,0.087732,-0.058060,-1.569913
46.284472,0.008498,-0.043941,-1.734360
46.314471,-0.042842,-0.023521,-1.835740
46.344439,-0.032730,0.057438,-1.753026
46.394463,0.013510,0.062417,-1.250831
46.434435,0.081194,0.050081,-0.322420
46.444462,0.102180,0.116044,-0.146834
46.494433,0.109089,0.046434,0.463943
46.504458,0.181065,0.051500,0.671235
46.554431,0.108621,-0.184243,1.287529
46.594452,0.121054,-0.264390,1.621515
46.624451,0.192150,-0.267711,1.544550
46.654449,0.239931,-0.238821,1.110901
46.694439,0.131124,-0.205300,0.648466
46.714445,0.095006,-0.227458,0.345978
46.744443,0.129082,-0.230561,-0.004503
46.784442,0.114903,-0.178030,-0.534169
46.834438,0.051703,-0.134983,-1.067081
46.854418,0.068629,-0.087002,-1.159778
46.894416,0.110939,-0.074427,-0.911835
46.924430,0.055548,-0.065939,-0.574141
46.954429,0.036727,-0.048887,-0.478949
46.994411,0.066812,-0.059666,-0.375375
47.024411,0.078209,-0.031014,-0.158322
47.054410,0.138292,-0.093093,0.066769
47.084409,0.059903,-0.108982,0.219490
47.124403,0.101331,-0.110127,0.188489
47.164418,0.174336,-0.105948,0.029293
47.194416,0.080490,-0.131313,0.008875
47.224414,0.066936,-0.150355,-0.228425
47.254412,0.031017,-0.132012,-0.511459
47.294384,-0.024162,-0.129610,-0.807397
47.334390,-0.015145,-0.019669,-1.124129
47.364398,0.024771,-0.020736,-1.304714
47.394396,0.084595,0.019631,-1.285274
47.424399,0.105280,0.020576,-1.134621
47.464399,0.094388,0.082334,-0.932339
47.494397,0.092937,0.097159,-0.722838
47.524394,0.046709,0.085428,-0.501720
47.554393,0.004767,0.043815,-0.236959
47.584390,0.194198,0.045537,-0.270117
47.614389,0.164256,0.075493,-0.347943
47.664386,0.048431,0.010823,-0.551279
47.694385,0.115260,0.082181,-0.717583
47.724382,0.023764,0.154910,-0.778064
47.754381,0.068021,0.105819,-0.875575
47.794378,0.274127,0.186497,-1.120927
47.824375,-0.050252,0.218101,-1.035199
47.854372,0.079405,0.109047,-0.988817
47.894371,0.086779,0.231712,-1.158030
47.914360,0.031285,0.205191,-1.169916
47.964368,-0.040372,0.269406,-1.351185
47.974358,0.112902,0.288269,-1.389582
48.024364,0.280644,0.316597,-1.229197
48.054363,0.338772,0.373788,-0.728855
48.084361,0.308152,0.383240,-0.298205
48.114358,0.306710,0.352196,-0.032328
48.154350,0.284030,0.307324,0.268738
48.194354,0.191373,0.210469,0.372937
48.214348,0.116450,0.254261,0.547355
48.264349,0.181004,0.128311,0.561606
48.294348,0.101346,0.126325,0.629996
48.324323,0.215910,0.071736,0.550602
48.354344,0.256556,0.045122,0.287604
48.384342,0.163203,0.055051,0.035523
48.414340,0.101627,0.026535,-0.227461
48.444337,0.010747,0.076936,-0.412007
48.494333,0.087579,0.040643,-0.668656
48.534320,0.324126,0.011280,-0.575917
48.544331,0.296389,0.042286,-0.630232
48.594317,0.105540,0.231211,-0.225269
48.624316,0.289015,0.202117,-0.433823
48.664322,0.138033,0.270690,-0.443026
48.694297,0.211481,0.175593,-0.338857
48.724296,0.338632,0.164566,-0.176541
48.754310,0.207082,0.177584,-0.032195
48.794314,0.176752,0.237297,0.081397
48.824314,0.254364,0.221140,0.062058
48.854311,0.162860,0.181869,0.129177
48.894310,0.188405,0.131678,0.184455
48.924309,-0.137325,0.172933,0.163390
48.954306,0.048111,0.166087,0.228484
48.984296,0.146353,0.068925,0.081547
49.034301,0.130654,-0.064595,0.683431
49.054283,0.052832,-0.097471,0.689679
49.084282,0.164627,-0.044388,0.626905
49.124295,0.078946,-0.046071,0.105506
49.164293,0.232568,-0.002557,-0.200941
49.194292,0.132989,-0.034241,-0.350676
49.224289,0.043251,-0.020123,-0.467040
49.254287,-0.013089,-0.005078,-0.454122
49.284286,0.016203,0.041701,-0.326725
49.324272,0.043883,0.085373,-0.378846
49.354271,0.064358,0.141821,-0.362513
49.394278,0.190713,0.116885,-0.094496
49.424276,0.117747,0.102034,0.090284
49.464275,0.093913,0.094513,0.317831
49.494273,0.016622,0.056390,0.152028
49.524271,0.226152,0.079247,0.406398
49.554247,-0.056649,0.070389,0.201272
49.584245,0.039323,0.036016,0.289742
49.614245,0.156798,-0.003774,0.454039
49.644244,0.129539,-0.083609,0.332870
49.684261,0.161570,-0.052762,0.326622
49.734234,0.215041,-0.038879,0.032858
49.764232,-0.056146,-0.084013,-0.162855
49.794258,0.075305,-0.097190,0.015475
49.824237,0.097381,-0.082259,-0.096637
49.864249,0.187335,-0.013212,-0.004391
49.894248,0.138183,0.015727,-0.096108
49.914246,0.279587,0.006909,-0.154956
49.954244,0.021673,-0.062870,-0.156346
49.984241,0.069424,-0.054418,-0.220419
50.034209,0.072331,-0.027710,-0.347420
50.064237,0.071375,-0.033059,-0.304711
50.094235,-0.018773,-0.009447,-0.213740
50.124234,0.173476,0.020956,-0.050144
50.154231,0.141666,-0.053662,0.080875
50.184229,0.177204,-0.010074,0.164446
50.224205,0.025143,0.055303,0.154157
50.254204,0.057600,0.036120,-0.007294
50.294221,0.120256,0.029606,-0.054358
50.334220,0.183678,0.018872,-0.196537
50.364219,0.019868,0.023482,-0.148392
50.394217,0.009288,0.069362,-0.179123
50.424214,0.190454,0.110528,-0.173597
50.454213,0.243212,0.023020,-0.231788
50.494218,-0.048266,0.145061,0.069191
50.524217,0.097440,-0.090803,-0.066767
50.544231,0.093786,0.018974,0.007561
50.594227,0.045157,0.076628,0.057039
50.634226,0.011583,-0.001247,0.314119
50.664224,-0.058676,-0.006424,0.324792
50.694221,-0.092980,0.020359,0.215964
50.724219,0.187051,-0.030407,0.276521
50.754218,0.265207,-0.033854,0.423931
50.784216,0.095117,-0.112275,0.249381
50.814185,0.055639,-0.030037,0.125900
50.854203,0.116894,-0.075961,0.012376
50.884209,0.046252,-0.049074,-0.142386
50.934185,0.095867,-0.013914,-0.325981
50.964184,0.111722,-0.017131,-0.361262
50.994181,0.055498,-0.011705,-0.298179
51.024181,0.163931,-0.031122,-0.332502
51.064198,-0.023756,0.032109,-0.148334
51.094197,0.154176,0.065822,-0.147123
51.124195,0.107467,0.069104,-0.104355
51.154191,0.034590,0.077705,0.082691
51.194190,0.222454,0.010178,-0.037393
51.234188,0.066657,0.110679,0.086070
51.264187,0.194825,0.052899,-0.069206
51.294183,0.005021,0.040572,-0.148295
51.324182,-0.045867,0.088652,-0.130923
51.364179,-0.021303,0.118451,-0.140381
51.394177,0.034942,0.071421,-0.148132
51.424149,0.067430,0.057391,0.050517
51.454148,0.071957,-0.000264,0.207263
51.494171,0.113622,0.077312,0.519671
51.534169,0.184828,-0.076429,0.654504
51.564144,0.039119,-0.077194,0.709026
51.594165,0.226646,-0.104130,0.428896
51.624163,0.046513,-0.043959,0.294643
51.654162,0.009217,-0.073562,-0.036734
51.684160,0.064061,0.002135,-0.299173
51.714158,0.111528,-0.014965,-0.428563
51.744154,0.150581,-0.002197,-0.557786
51.784153,0.155090,-0.007581,-0.468066
51.834148,0.107173,0.011552,-0.135657
51.864147,0.081046,0.028597,0.008686
51.894134,0.128613,0.078506,0.190588
51.904144,0.065597,-0.001321,0.217944
51.954143,0.080983,0.038033,0.332482
51.994139,0.135868,-0.016413,0.234940
52.024138,0.094397,0.027406,0.202068
52.054135,0.201595,-0.032514,0.157906
52.094133,0.182466,-0.018610,0.153713
52.114132,0.174921,-0.035645,0.142937
52.154129,-0.039086,-0.071431,0.186598
52.194127,0.058860,-0.026849,0.131259
52.224126,0.170444,-0.017465,0.049013
52.254113,0.154269,-0.010995,-0.026809
52.284122,0.131494,-0.031142,-0.142308
52.334118,0.019314,-0.003093,-0.302397
52.354112,0.239744,-0.006794,-0.288580
52.394114,0.000763,0.042715,-0.150419
52.414094,0.029100,-0.057549,-0.171277
52.464110,0.047063,-0.017208,0.091782
52.494109,0.092185,-0.030176,0.241285
52.524107,0.125447,-0.012159,0.305484
52.554105,0.068798,-0.000263,0.219017
52.584102,0.115532,-0.043016,0.230524
52.614101,0.041334,0.010430,0.279985
52.644099,0.020797,-0.042807,0.239096
52.684095,0.128029,-0.028065,0.119483
52.734081,0.134331,-0.015265,0.075745
52.764080,0.076615,-0.058833,0.053082
52.794079,0.008783,-0.045931,0.141851
52.824084,0.102609,-0.028030,0.164365
52.864085,0.112156,-0.017378,0.139847
52.894084,0.032000,-0.095017,0.129823
52.924081,0.078068,-0.074900,0.201509
52.954079,0.104566,-0.111207,0.203440
52.994075,0.168448,-0.103884,0.193849
53.014076,0.096140,-0.108003,0.230172
53.044074,0.122579,-0.177368,0.251153
53.094072,0.099377,-0.124018,0.263205
53.124068,-0.052816,-0.142886,0.306945
53.154066,0.042856,-0.099342,0.204589
53.194045,0.157646,-0.092101,0.128740
53.214064,0.114934,-0.115451,0.114732
53.254044,0.118899,-0.106879,0.006863
53.294057,0.125938,-0.091893,-0.149052
53.324056,0.034245,-0.024464,-0.269396
53.364054,0.066966,-0.027691,-0.361309
53.394051,0.115206,-0.012920,-0.269351
53.424049,0.098676,-0.049233,-0.057991
53.454048,0.138422,-0.088848,0.105257
53.484047,0.102283,-0.111177,0.152155
53.514019,0.057360,-0.092908,0.062515
53.544042,0.157742,-0.062074,-0.230098
53.594038,0.063862,0.076836,-0.452622
53.624036,0.048042,0.090714,-0.418351
53.664033,0.087573,0.113895,-0.044270
53.694003,0.108253,0.035906,0.196769
53.724010,0.119407,-0.017537,0.428329
53.764028,0.130911,-0.101796,0.456712
53.794026,0.068008,-0.026973,0.341744
53.824023,0.168141,-0.033431,0.009392
53.844016,0.079159,-0.049131,-0.175517
53.894003,0.040309,0.028910,-0.440058
53.924017,0.081952,0.030930,-0.402660
53.964016,0.053491,-0.041588,-0.222482
53.994014,0.053672,-0.050152,-0.152010
54.024012,0.119934,-0.052475,-0.066562
54.054010,0.126952,-0.065394,0.158811
54.094007,0.050478,-0.062053,0.217614
54.124004,0.153591,-0.043057,0.139696
54.153981,0.090453,-0.053530,0.045628
54.194000,0.049370,0.009600,-0.236089
54.233999,0.080514,0.032061,-0.528733
54.243974,0.067718,0.051293,-0.557472
54.293995,0.155822,0.081006,-0.682340
54.323987,0.101530,0.093927,-0.694009
54.353991,0.007253,0.098327,-0.536899
54.393970,0.164474,0.140524,-0.350791
54.423985,0.112793,0.164027,-0.213886
54.453983,0.150650,0.169178,-0.022612
54.493982,0.152526,0.110373,0.316836
54.533980,0.166162,0.091000,0.626581
54.563977,0.101403,0.028181,0.763014
54.593976,0.127083,-0.012432,0.852536
54.623974,0.159709,-0.090311,0.815772
54.653973,0.153164,-0.095604,0.769801
54.683970,0.165556,-0.065702,0.606487
54.713968,0.133706,-0.100670,0.322091
54.743966,0.007669,-0.021387,0.097111
54.793960,0.041793,-0.026630,-0.235218
54.833961,0.098723,-0.051374,-0.039839
54.843958,0.022124,-0.060812,-0.007819
54.893932,0.048088,-0.142006,0.223585
54.923931,0.147241,-0.163585,0.292893
54.963944,0.059847,-0.100440,0.190689
54.993949,0.083527,-0.049159,-0.139190
55.023946,0.045929,0.067249,-0.385357
55.053941,0.038663,0.139769,-0.407394
55.093936,0.096959,0.155507,-0.158369
55.123941,0.046666,0.063751,0.220443
55.163921,0.094279,-0.010083,0.561934
55.173939,0.128410,-0.037904,0.614128
55.223917,0.056079,-0.127354,0.741869
55.263933,0.146920,-0.173307,0.552477
55.283916,0.175819,-0.139263,0.563342
55.323929,0.132860,-0.130572,0.429842
55.353927,0.122693,-0.142186,0.248141
55.393924,0.144833,-0.120866,0.149955
55.423922,0.167389,-0.065482,0.151322
55.443922,0.080163,-0.067432,0.181249
55.493904,0.163289,-0.132700,0.282375
55.523917,0.104757,-0.165640,0.330288
55.553915,0.086596,-0.183723,0.331262
55.583913,0.147400,-0.191345,0.378218
55.633909,0.123126,-0.215685,0.122727
55.653906,0.105992,-0.209230,0.082165
55.693905,0.116903,-0.238990,-0.150926
55.723904,0.114664,-0.201633,-0.230855
55.753902,0.095620,-0.163209,-0.234913
55.783900,0.014354,-0.153369,-0.361987
55.823898,0.041239,-0.119339,-0.312657
55.853896,0.125648,-0.102511,-0.233518
55.893876,0.090514,-0.156833,-0.169701
55.923891,0.133242,-0.154819,-0.125893
55.953889,0.118098,-0.232614,-0.114564
55.993886,0.146776,-0.308402,-0.049811
56.033885,0.083157,-0.238967,-0.041935
56.063883,0.111093,-0.168671,-0.039418
56.093881,0.144708,-0.088845,0.071064
56.123867,0.134402,-0.070744,0.164123
56.153850,0.118668,-0.024880,0.190022
56.183849,0.094170,0.019977,0.134714
56.223873,0.074770,0.069127,-0.000706
56.253871,0.084989,0.145801,0.122586
56.293844,0.111443,0.118034,0.099989
56.333848,0.100890,0.100976,0.151184
56.363838,0.094672,0.071094,0.242910
56.393862,0.118030,0.035852,0.261943
56.423837,0.072373,0.007134,0.337657
56.463856,0.158119,-0.053954,0.598006
56.493855,0.109205,-0.066654,0.634275
56.523854,0.098212,-0.106040,0.564611
56.553851,0.111689,-0.094277,0.428978
56.593849,0.059321,-0.071551,-0.018571
56.613847,0.086886,-0.071594,-0.058111
56.663826,0.082495,-0.080096,-0.092348
56.693824,0.091112,-0.073731,-0.066672
56.723839,0.089239,-0.084436,0.031569
56.753839,0.103467,-0.065332,0.138517
56.793834,0.089792,-0.052528,0.179192
56.813835,0.095012,-0.048256,0.139681
56.853807,0.089398,-0.035395,0.027564
56.883805,0.095679,-0.038592,-0.004509
56.933827,0.095381,-0.090810,-0.043260
56.943803,0.099650,-0.097221,-0.032612
56.993823,0.109512,-0.105823,0.070979
57.023821,0.107428,-0.085559,0.062544
57.053819,0.103155,-0.056746,0.024238
57.083815,0.094833,-0.022626,0.050071
57.113817,0.093929,-0.008783,0.087543
57.143814,0.095098,0.002931,0.108977
57.193810,0.074578,-0.003376,0.019196
57.223808,0.098218,0.007203,0.079083
57.263805,0.084146,-0.051396,0.070216
57.293804,0.105450,-0.070645,0.095748
57.323784,0.099902,-0.103663,0.059240
57.363800,0.108283,-0.116460,0.028183
57.393798,0.104916,-0.115357,-0.030576
57.423795,0.103871,-0.102558,-0.039053
57.453793,0.101888,-0.071644,-0.026061
57.493765,0.093587,-0.002326,-0.034226
57.523788,0.085290,0.025390,0.007599
57.563762,0.088863,0.066920,0.085824
57.593785,0.087819,0.056253,0.104998
57.623784,0.094322,0.043419,0.158349
57.663765,0.086628,0.008275,0.118624
57.693772,0.097216,-0.020539,0.132354
57.723771,0.082021,-0.041791,0.060653
57.753749,0.099022,-0.048224,0.056340
57.793771,0.094783,-0.084485,0.105291
57.823771,0.106481,-0.062109,0.074426
57.863768,0.089219,-0.048166,-0.017381
57.893766,0.095732,-0.027934,0.000892
57.923764,0.096780,-0.009800,-0.025720
57.953763,0.086174,0.001951,-0.025653
57.983761,0.089420,0.010468,-0.018128
58.013758,0.087293,0.007273,-0.013871
58.053727,0.094990,-0.003451,0.080093
58.093753,0.087417,-0.025815,0.066082
58.133751,0.101316,-0.037589,0.099136
58.163749,0.094697,-0.038603,0.023272
58.193747,0.090334,-0.028976,-0.022618
58.223745,0.092460,-0.023647,-0.030069
58.253743,0.089288,-0.017243,-0.030033
58.283741,0.094731,-0.008742,-0.000071
58.313739,0.087346,0.012597,-0.002088
58.343737,0.085328,0.023250,0.022545
58.393733,0.092057,0.009312,0.152820
58.423729,0.096381,-0.002442,0.188013
58.443731,0.096456,-0.017388,0.230670
58.493725,0.099473,-0.034432,0.191042
58.523723,0.094933,-0.034376,0.097019
58.563724,0.091525,-0.020466,0.009482
58.593721,0.087248,-0.004453,-0.015004
58.623720,0.092777,-0.003433,0.052314
58.653718,0.090703,0.005096,0.060909
58.693686,0.089708,0.004020,0.085478
58.713713,0.090819,-0.005590,0.112136
58.763683,0.091737,-0.036502,0.099145
58.793682,0.099314,-0.038673,0.142938
58.823678,0.098230,-0.038667,0.136527
58.863704,0.092722,-0.017291,0.050101
58.893700,0.093812,0.000836,0.037379
58.923692,0.089470,0.001927,0.008537
58.953696,0.088319,-0.004457,-0.012867
59.003693,0.094736,-0.018343,0.012698
59.033693,0.091487,-0.019393,-0.004402
59.063691,0.093732,-0.013017,0.026618
59.093688,0.092709,-0.005555,0.032001
59.123688,0.092703,-0.004487,0.028802
59.153686,0.090659,-0.011963,0.066157
59.183684,0.096052,-0.020520,0.099232
59.213682,0.098200,-0.027995,0.114148
59.243680,0.093850,-0.043971,0.102309
59.293676,0.101438,-0.049343,0.153563
59.323674,0.102508,-0.058947,0.166332
59.363648,0.102459,-0.053605,0.143924
59.393657,0.099194,-0.049319,0.115099
59.423643,0.096959,-0.041830,0.071334
59.463666,0.103356,-0.038646,0.070282
59.493665,0.101176,-0.037566,0.052124
59.523661,0.097885,-0.025809,0.006246
59.553660,0.090374,-0.019383,-0.020429
59.583658,0.094704,-0.013004,-0.004368
59.623646,0.105716,-0.010955,0.115309
59.663654,0.097349,-0.054695,0.216574
59.693652,0.120237,-0.065501,0.405628
59.723650,0.127988,-0.108235,0.554976
59.763625,0.141122,-0.123256,0.691654
59.793645,0.144437,-0.151017,0.764156
59.823642,0.152101,-0.162803,0.848498
59.853640,0.167248,-0.186344,0.956280
59.893638,0.183351,-0.216269,1.035178
59.933636,0.188570,-0.125420,0.538840
59.963635,0.125615,-0.160457,0.534389
59.993632,0.122250,-0.144421,0.458617
60.023630,0.170050,-0.185219,0.823796
60.063615,0.220281,-0.299673,1.375550
60.093614,0.233108,-0.313577,1.408593
60.113625,0.255849,-0.348892,1.577211
60.143622,0.272973,-0.371345,1.632644
60.193619,0.270568,-0.347827,1.513106
60.233617,0.235064,-0.289020,1.322182
60.263615,0.176211,-0.254705,1.184553
60.293613,0.158758,-0.201263,0.982911
60.323610,0.125488,-0.191544,0.883605
60.353579,0.061426,-0.175371,0.805712
60.393587,0.024921,-0.150705,0.675503
60.423581,0.109966,-0.157274,0.638051
60.453599,0.130431,-0.165893,0.726681
60.493612,0.081020,-0.143310,0.555863
60.523620,0.070971,-0.156011,0.414758
60.553617,0.024209,-0.123919,0.406398
60.593617,0.044412,-0.094093,0.362750
60.623630,0.027221,-0.112162,0.331669
60.663608,0.050780,-0.072770,0.330812
60.693607,0.019331,-0.102473,0.174660
60.723606,0.005377,-0.098156,0.131949
60.753621,0.015669,-0.124788,0.044186
60.783593,-0.004020,-0.111857,-0.145925
60.813609,-0.028580,-0.048856,-0.242803
60.863614,-0.080711,0.084591,-0.384163
60.893612,-0.009457,0.213338,-0.206107
60.923610,-0.034810,0.296388,0.120237
60.963586,-0.022409,0.221579,0.437157
60.993584,0.035331,0.142474,0.610868
61.023576,0.084168,0.046386,0.675504
61.053579,0.043263,-0.000383,0.581232
61.093600,0.119681,-0.063450,0.573388
61.123596,0.157338,-0.099866,0.746270
61.163595,0.142793,-0.118027,0.888279
61.193593,0.213167,-0.157669,0.968179
61.223592,0.275051,-0.238723,0.749753
61.253590,0.215351,-0.250134,0.382152
61.283587,0.203701,-0.106116,0.235499
61.313556,0.327362,-0.136111,-0.035017
61.353583,0.194223,-0.012243,0.161225
61.403553,0.044293,-0.065272,0.289184
61.433551,0.195442,-0.061339,0.269938
61.463555,0.149710,-0.092178,0.323202
61.473575,0.117156,-0.087913,0.469613
61.523548,0.061886,-0.086913,0.856416
61.533571,0.367473,-0.120669,0.897828
61.593568,0.112378,-0.247278,1.548955
61.613544,0.299068,-0.247758,1.669645
61.653564,0.158636,-0.201418,1.298107
61.703540,0.146579,-0.008264,0.958332
61.723539,0.172377,-0.038229,1.074624
61.763532,0.258895,-0.063003,1.195203
61.793537,0.172190,-0.078732,1.059442
61.813536,0.134284,0.015152,1.092021
61.853552,0.203732,-0.176872,1.039663
61.893548,0.489833,-0.123239,1.227940
61.913547,0.196580,-0.168372,1.130531
61.953544,0.340591,-0.142074,1.190475
61.993541,0.335733,-0.137873,1.341153
62.023540,0.298478,-0.218859,1.439015
62.053538,0.306141,-0.189043,1.474437
62.083536,0.343897,-0.218901,1.317199
62.123505,0.408312,-0.244559,1.168527
62.163530,0.471070,-0.330916,0.892373
62.193515,0.279596,-0.255672,0.509254
62.223501,0.309068,-0.202348,0.333243
62.253525,0.287573,-0.212933,0.278699
62.293516,0.285735,-0.193602,-0.002201
62.323513,0.293000,-0.166920,-0.096080
62.353514,0.218346,-0.111264,-0.201535
62.393504,0.143497,-0.056643,-0.371102
62.423513,0.147264,-0.035412,-0.204306
62.463511,0.192984,-0.021812,0.114160
62.493510,0.128716,0.003821,0.311982
62.523508,0.125468,0.018596,0.632603
62.553507,0.135912,0.022697,0.915766
62.583503,0.229561,-0.014840,0.943317
62.633472,0.258140,0.025483,1.195690
62.663480,0.246599,-0.036387,1.324637
62.693497,0.234060,-0.089732,1.466452
62.723488,0.280440,-0.035534,1.602434
62.753467,0.244729,-0.168694,1.565383
62.783466,0.441683,-0.091266,1.467463
62.823489,0.481663,-0.143545,1.367799
62.853487,0.579563,-0.228024,1.447446
62.893458,0.611977,-0.210041,1.584300
62.923463,0.410572,-0.252227,1.576637
62.953479,0.688301,-0.250692,1.518883
62.983454,0.637661,-0.282480,1.356313
63.023474,0.573218,-0.308910,1.200188
63.063466,0.530828,-0.486809,1.118017
63.083470,0.590341,-0.422923,1.006165
63.123467,0.590515,-0.459045,0.750603
63.143468,0.538209,-0.510106,0.765294
63.173466,0.453064,-0.436318,0.690927
63.233462,0.502413,-0.493916,0.526055
63.263461,0.512968,-0.467258,0.464228
63.293458,0.410747,-0.455293,0.448292
63.323457,0.304440,-0.493307,0.192745
63.353455,0.285513,-0.389660,-0.204149
63.383452,0.248158,-0.395786,-0.582410
63.413440,0.218508,-0.352903,-0.933692
63.453448,0.205124,-0.205746,-0.952113
63.483447,0.111305,-0.251382,-0.939520
63.523435,0.189822,-0.042619,-0.918090
63.543442,0.151371,-0.047846,-0.952300
63.593433,0.144593,0.070285,-0.508237
63.623423,0.211107,0.009252,-0.270321
63.663434,0.075648,-0.018312,0.038346
63.693432,0.154973,0.034755,0.155081
63.723431,0.139286,0.041144,0.242734
63.753428,0.145817,0.096573,0.225942
63.793426,0.213062,0.098528,0.279360
63.823424,0.157993,0.083670,0.395754
63.863422,0.356542,0.085272,0.563464
63.893419,0.205975,-0.013693,0.887769
63.923419,0.179041,-0.029756,1.156940
63.953416,0.223909,-0.115216,1.306045
63.993397,0.122098,-0.177988,1.514074
64.013412,0.041247,-0.168217,1.525900
64.053399,0.186847,-0.173834,1.442495
64.093407,0.180903,-0.214253,1.282004
64.133404,0.194091,-0.286710,1.148045
64.163403,0.364099,-0.378770,1.137882
64.193400,0.264402,-0.472302,1.020929
64.223400,0.235438,-0.412467,0.879160
64.253397,0.363790,-0.396677,0.699714
64.283395,0.287015,-0.355951,0.614479
64.313392,0.407939,-0.282547,0.376586
64.343372,0.479060,-0.371032,0.051270
64.393370,0.365568,-0.308805,-0.231504
64.423368,0.313776,-0.335243,-0.429303
64.463367,0.207980,-0.305249,-0.237858
64.493366,0.251046,-0.323558,-0.057398
64.523360,0.201558,-0.344871,0.152984
64.563367,0.223594,-0.345043,0.400861
64.593346,0.084045,-0.380984,0.419929
64.623345,0.114631,-0.369272,0.308866
64.653360,0.118579,-0.261494,0.079738
64.683349,0.112675,-0.227252,-0.154066
64.723359,-0.102916,-0.298150,-0.243087
64.753355,-0.108572,-0.305549,-0.345699
64.793362,0.113471,-0.183300,-0.650661
64.823360,0.114145,-0.057544,-0.571972
64.863355,0.116128,-0.125792,-0.541362
64.893354,0.112106,-0.111955,-0.478245
64.913354,0.052490,-0.075555,-0.517564
64.953351,-0.079366,-0.046486,-0.493867
64.993348,0.086510,-0.055531,-0.202265
65.023346,0.191405,-0.014257,-0.066369
65.053345,0.286188,0.055752,0.215000
65.083343,-0.004087,-0.012994,0.428384
65.123340,0.060055,-0.047140,0.198461
65.163323,0.102554,0.040247,0.066442
65.193313,0.068147,0.020113,-0.022343
65.223321,0.002943,0.002168,-0.086534
65.253316,0.108082,-0.025758,-0.144410
65.293302,0.244250,-0.012178,-0.199928
65.323326,0.017264,-0.037235,-0.236339
65.353300,0.067502,0.008487,-0.224347
65.393317,0.062662,0.068153,-0.132130
65.423320,-0.003606,-0.006324,-0.130387
65.463318,0.202784,0.035906,-0.235981
65.493306,0.178586,0.067913,-0.175966
65.523305,0.052012,0.063910,-0.127877
65.553279,0.189322,0.097742,-0.181147
65.603280,0.266321,0.000444,0.044815
65.633279,0.196599,-0.081624,0.324318
65.663278,0.162382,-0.027122,0.212437
65.693277,0.120536,-0.031242,0.109851
65.723275,0.073939,0.005089,0.151732
65.753291,0.127298,0.031616,0.161482
65.793287,0.075300,-0.009896,0.268112
65.823285,0.098860,-0.024905,0.331063
65.853283,0.154161,-0.046353,0.334138
65.893280,0.127437,-0.086809,0.345675
65.923278,0.587056,0.047682,0.072778
65.963276,0.035539,-0.037480,0.178219
65.993275,-0.012931,0.018188,-0.072552
66.023272,0.048816,-0.060884,0.016749
66.053271,0.103296,-0.094104,0.114852
66.093245,0.143854,-0.051544,0.097981
66.113267,0.116358,0.003955,0.096156
66.143264,0.065349,0.039254,0.087814
66.193261,0.161690,-0.003715,0.309796
66.233259,0.013287,-0.067315,0.248579
66.263257,-0.027011,-0.049117,0.281811
66.293255,0.087532,-0.045035,0.126879
66.323253,-0.140653,-0.024199,-0.007579
66.353251,0.040326,-0.011802,-0.031060
66.383250,0.159881,0.034813,0.016180
66.413247,-0.022746,0.000115,-0.129278
66.443246,0.200192,0.019813,-0.015966
66.493245,0.189650,-0.019648,0.065023
66.523212,0.141609,-0.032319,0.037185
66.563211,0.347329,0.088782,-0.028443
66.593209,0.296297,0.111285,-0.029376
66.623209,0.116059,0.057339,-0.065957
66.663222,0.136105,0.059458,-0.130058
66.693220,0.227672,0.014451,-0.077973
66.723218,0.020440,0.029787,0.035418
66.753210,0.072593,0.011539,0.050264
66.793223,0.094487,0.028458,0.230922
66.833220,0.066508,-0.039698,0.211322
66.863218,0.006065,-0.006536,0.255326
66.893216,0.134563,-0.024903,0.164375
66.923214,0.260213,-0.071056,0.221788
66.953213,0.046309,-0.100459,0.292196
66.993209,0.339259,-0.193769,0.093948
67.023207,0.250798,-0.132930,0.349666
67.053206,0.313048,0.200721,0.127108
67.093203,0.502978,0.010531,0.128154
67.133201,-0.057511,-0.242180,0.632282
67.163186,0.247738,-0.190546,0.461539
67.193196,0.022308,-0.224046,0.243441
67.223194,0.034256,-0.149443,0.235301
67.253183,0.068351,-0.025788,0.099209
67.283170,0.122488,-0.309447,0.018571
67.313180,0.558827,-0.131368,0.098512
67.343165,-0.214472,-0.193578,0.071642
67.383184,0.393721,-0.199077,-0.202059
67.433183,0.044959,-0.210103,-0.031083
67.463156,0.164168,-0.139963,-0.126887
67.493173,-0.050687,-0.101115,-0.097774
67.523172,0.169505,-0.113310,-0.153453
67.563154,0.298439,-0.083750,-0.154390
67.593170,-0.158482,-0.141364,-0.136434
67.623168,-0.059320,-0.075476,-0.166013
67.653166,0.051430,0.088541,-0.351050
67.683165,0.032463,-0.058476,-0.469385
67.713164,0.258494,0.044433,-0.487037
67.763161,0.184391,0.159731,-0.477838
67.793158,0.022270,0.199435,-0.261751
67.823156,-0.168684,-0.055013,-0.087876
67.863142,0.265858,0.014214,0.229735
67.883152,-0.033679,0.036279,0.088890
67.913150,-0.178380,0.114455,0.032725
67.953140,0.065160,0.044619,0.018394
67.993144,0.225243,0.113532,0.062541
68.033143,0.177153,-0.093267,0.244123
68.063141,0.038368,-0.123828,0.156374
68.093139,0.144769,-0.063255,0.061589
68.123137,0.097288,-0.114245,-0.090402
68.163130,-0.003788,0.001173,-0.199795
68.183132,0.240807,-0.011063,-0.284329
68.223104,-0.181546,0.081566,-0.275172
68.253126,0.104709,0.032055,-0.627037
68.293102,-0.038318,0.132528,-0.505714
68.333123,-0.061916,0.240170,-0.333094
68.363121,-0.100467,0.298786,-0.119070
68.393119,0.098016,0.319600,0.003870
68.423118,0.056978,0.214010,0.289648
68.453115,0.127831,0.127354,0.584051
68.483113,0.495299,-0.075991,0.509122
68.513111,0.280552,0.155734,0.705976
68.543087,-0.006367,-0.057765,0.430275
68.593097,0.044980,0.113816,0.310469
68.623105,-0.023311,-0.028942,0.427232
68.663095,0.058065,-0.062092,0.262487
68.693093,0.240190,0.031182,0.527935
68.723091,0.089659,-0.087881,0.531591
68.763076,-0.044055,-0.147388,0.749262
68.793073,0.125552,-0.210580,0.571509
68.823073,0.315524,-0.181040,0.331222
68.853070,-0.183804,-0.124453,0.277160
68.893086,-0.028092,-0.203606,0.100392
68.923084,0.047560,-0.420148,0.014775
68.963082,0.122102,-0.322007,-0.451622
68.993079,0.355685,-0.174331,-0.488262
69.023078,0.171546,-0.117392,-0.533850
69.053060,0.202963,0.001917,-0.492600
69.093073,0.186175,-0.039686,-0.361403
69.113072,0.117123,-0.085424,-0.255860
69.153069,0.273583,-0.178568,-0.166658
69.183050,-0.075870,0.007683,-0.100375
69.223065,0.033463,0.156827,-0.385930
69.263063,0.013619,0.169609,-0.271529
69.293061,0.264443,0.075250,-0.313778
69.323059,0.037363,0.137502,-0.127469
69.353057,0.106026,0.180996,-0.004373
69.383055,0.001807,0.200411,0.014991
69.413052,-0.062469,0.286846,0.139423
69.443032,-0.072264,0.213302,0.153980
69.493047,0.189108,0.021868,0.191330
69.523045,-0.154807,0.021576,0.190342
69.563028,0.168916,0.033641,0.190331
69.593019,0.056697,-0.005505,0.095050
69.623016,0.564449,0.044574,-0.006300
69.663036,-0.049615,-0.057735,0.565980
69.683016,0.160402,-0.084918,0.685449
69.723033,0.211298,-0.188291,0.379288
69.753031,0.147005,-0.149679,0.197877
69.803010,0.411255,-0.231199,0.001837
69.833017,0.041787,-0.332768,0.118897
69.863008,0.034128,-0.277249,-0.014354
69.893014,0.099450,-0.169722,-0.014847
69.923003,0.093956,-0.179282,-0.060842
69.953010,0.202034,-0.180506,-0.235034
69.983007,0.077114,-0.079008,-0.112641
70.023013,0.047846,-0.064098,0.051991
70.053011,-0.126267,-0.036055,0.187881
70.093008,0.107067,0.055129,0.133836
70.133007,0.084010,-0.111107,0.094463
70.163004,0.178188,-0.184825,-0.014948
70.193002,0.152293,-0.133509,-0.188820
70.223001,0.132910,-0.056629,-0.350799
70.252969,0.053127,-0.041527,-0.344286
70.282996,-0.002348,-0.125652,-0.282765
70.312995,0.137375,0.022262,-0.373873
70.342993,-0.127341,0.092126,-0.320003
70.392988,-0.372951,0.051022,-0.156695
70.432986,0.566388,0.003000,-0.021487
70.462984,-0.076110,0.271910,0.223753
70.493002,0.178832,0.208500,0.098334
70.523001,-0.138036,0.223010,0.223499
70.562987,0.220822,0.141303,-0.023850
70.582996,-0.059332,0.119554,-0.040999
70.622988,-0.210465,0.282912,0.144779
70.652986,-0.031425,0.055453,0.108227
70.692988,0.178869,-0.025110,0.382330
70.732980,-0.187320,-0.224661,0.286226
70.762984,0.033261,-0.118519,0.222650
70.792983,0.194808,-0.006832,-0.005426
70.822981,0.029895,-0.047015,0.082006
70.852979,0.374061,-0.164101,0.303521
70.882977,0.060064,-0.253012,0.440939
70.912974,-0.005165,-0.238952,0.330980
70.942973,0.183556,-0.282979,0.113795
70.992945,0.030829,-0.168423,-0.176161
71.012967,0.110526,-0.370004,-0.350379
71.062941,-0.141722,-0.329985,-0.365058
71.092954,0.138075,-0.272976,-0.507985
71.122954,-0.002058,-0.088192,-0.584934
71.162957,-0.067658,0.061224,-0.620425
71.192956,0.221530,0.149001,-0.507822
71.222954,-0.022605,0.236895,-0.357696
71.252953,0.091444,0.220618,-0.297979
71.292949,-0.043130,0.339042,0.136500
71.322947,0.052899,0.285458,0.266536
71.362945,0.161847,0.317156,0.344682
71.392943,0.020070,0.320703,0.284901
71.422941,0.132655,0.259694,0.263170
71.452939,0.144646,0.229754,0.391218
71.492911,0.051060,0.163812,0.505203
71.522924,0.031261,0.001825,0.481880
71.562916,-0.074782,-0.021299,0.296934
71.592930,0.219645,-0.025079,0.132299
71.622928,0.177771,-0.065462,0.062637
71.662926,0.009847,-0.008599,0.098249
71.692925,0.154488,-0.027032,0.064991
71.722922,0.130489,-0.000391,0.197633
71.762911,-0.107437,-0.021108,0.058675
71.782918,-0.126371,0.031164,0.074994
71.822909,0.165344,0.000643,0.102537
71.842913,0.238225,-0.123160,0.050553
71.892910,0.150501,-0.045201,0.177081
71.922908,0.192537,0.038888,0.250189
71.952906,-0.009624,-0.062014,0.414225
71.992905,0.235334,-0.314140,0.374317
72.022903,0.023189,-0.323394,0.653185
72.052900,0.017390,-0.500198,0.344497
72.082898,0.194168,-0.372599,0.206256
72.122896,0.278624,-0.220134,-0.212832
72.152893,0.112495,-0.358249,-0.417628
72.192878,0.340519,-0.258522,-0.476968
72.212890,0.003684,-0.243835,-0.619982
72.252876,-0.001671,0.057880,-0.625801
72.292874,-0.006151,0.179353,-0.485164
72.322882,0.024669,0.174851,-0.143287
72.362880,0.243107,0.204199,-0.121809
72.392878,-0.082282,0.268864,-0.056200
72.422876,0.081968,0.242847,0.067560
72.452873,0.213896,0.218033,0.063119
72.492864,0.218928,0.249895,0.284464
72.532865,-0.007061,0.254714,0.190520
72.562840,0.183762,0.208378,0.322709
72.592862,0.249778,0.130361,0.414153
72.622863,0.096694,0.099733,0.529415
72.652861,0.024866,-0.017360,0.502077
72.682859,0.210041,-0.093497,0.560380
72.722856,0.754380,0.031279,0.145304
72.752853,-0.852175,-0.327973,0.965360
72.792852,0.089904,-0.186774,0.017116
72.822850,0.657232,-0.300024,0.089014
72.852847,-0.858110,-0.650890,0.780879
72.892845,0.186659,-0.440490,-0.444810
72.922844,0.237058,-0.071048,0.311545
72.962832,0.144612,-0.205097,0.174066
72.992830,0.170604,0.033709,0.042883
73.022836,1.304576,-0.387531,-0.527056
73.052834,-0.447254,0.091686,-0.127605
73.092832,-0.011683,-0.244791,-0.772774
73.122830,0.032542,-0.042489,-0.461818
73.152827,0.239039,-0.118679,-0.393904
73.192827,-0.036675,0.054562,-0.221932
73.222799,0.045135,-0.005503,0.145270
73.262821,0.111517,0.009220,0.251113
73.292818,-0.126001,0.030210,-0.155800
73.312802,0.359784,0.102674,-0.152312
73.352815,0.078688,0.090333,0.216308
73.402784,-0.175969,-0.026399,0.290519
73.432799,0.232060,0.071670,0.610432
73.462792,0.325878,-0.108655,0.504709
73.492795,0.072397,-0.194474,0.580158
73.522784,0.640424,-0.118862,0.310117
73.552793,-0.032837,-0.236583,-0.023730
73.582790,0.043722,-0.178246,0.229798
73.622797,0.135359,-0.223090,-0.050408
73.652795,0.123876,-0.316794,-0.220806
73.692768,-0.226430,-0.308538,-0.232430
73.722766,0.108925,-0.298445,-0.612828
73.762784,0.008960,-0.108370,-0.793398
73.792769,0.209985,-0.145055,-0.821428
73.822783,0.251402,0.038164,-0.714652
73.852781,0.132035,0.014985,-0.726504
73.882779,0.156249,0.227963,-0.354583
73.912778,0.254318,0.218123,-0.305511
73.942753,0.298035,0.211439,0.079089
73.992755,0.012194,0.107453,0.391646
74.022770,0.127137,0.139203,0.338370
74.062768,0.131803,0.077433,0.190581
74.092766,0.269988,0.083560,0.106173
74.122757,0.072510,0.127821,-0.112572
74.152762,0.041703,0.055519,-0.360846
74.182759,-0.039302,0.109050,-0.451351
74.222758,-0.117416,0.048489,-0.510431
74.252756,0.214904,0.283283,-0.387415
74.292728,-0.021727,0.447952,-0.309524
74.312752,0.130636,0.416658,-0.238145
74.362729,0.144615,0.463188,0.465157
74.392728,-0.037209,0.378222,0.646372
74.422727,-0.325504,0.304163,0.815919
74.462742,0.299328,0.285716,0.780410
74.492741,0.289827,0.186523,0.923041
74.522738,0.442426,-0.102599,0.661778
74.552737,0.042167,0.092251,0.818940
74.592734,0.140360,-0.062328,0.366107
74.622731,0.126225,-0.046423,0.605534
74.662730,0.298644,-0.195961,0.400594
74.692728,-0.252800,-0.186201,0.420011
74.722725,0.139978,-0.302094,0.161781
74.762697,0.121041,-0.224221,0.147255
74.792696,0.232333,-0.268122,0.029456
74.822714,0.248944,-0.337599,0.323967
74.852693,0.098746,-0.259557,0.565904
74.892713,0.114317,-0.479980,-0.022966
74.932711,0.004467,-0.424235,-0.148713
74.962710,-0.064827,-0.422998,-0.178606
74.992708,0.031145,-0.452038,-0.096517
75.022706,0.539018,-0.441447,-0.111538
75.052703,-0.080637,-0.325920,-0.237903
75.082701,-0.009678,-0.289751,-0.406538
75.112698,0.241820,-0.262619,-0.364779
75.142694,0.211534,-0.193139,-0.603726
75.192664,-0.241125,0.030842,-0.912241
75.222663,0.212106,-0.034123,-0.953308
75.262662,0.166813,0.073458,-0.558443
75.292661,0.071300,0.162157,-0.556864
75.322661,-0.132073,0.285110,-0.346721
75.362683,0.391804,0.220991,-0.263857
75.392680,0.057406,0.275982,0.004709
75.422679,0.075589,0.337795,-0.039831
75.452677,0.159283,0.318300,0.198309
75.482707,0.087208,0.243741,0.394514
75.522704,0.267415,0.189957,0.545897
75.562703,0.207832,0.087682,0.678907
75.592700,-0.091573,0.259061,0.408531
75.622698,0.386187,0.279545,-0.074416
75.662693,0.009430,0.189349,0.795976
75.692692,0.449725,-0.136723,0.649836
75.712693,0.230649,-0.123473,0.721548
75.752689,0.170374,-0.118963,0.499347
75.792686,0.221424,-0.074093,0.072196
75.822684,0.246007,-0.115765,0.152096
75.852683,-0.170364,-0.025391,0.383479
75.892681,0.018616,-0.235689,0.090588
75.922667,0.086833,-0.247588,0.128971
75.962676,0.138169,-0.187832,-0.220100
75.992673,0.266360,-0.100722,-0.180119
76.022672,0.020717,-0.094887,-0.082798
76.052669,-0.107695,-0.082933,0.044445
76.092660,-0.283972,-0.002612,0.107968
76.132646,0.245661,-0.048506,-0.041995
76.162657,0.017569,-0.000127,0.178429
76.172662,0.289098,0.010991,0.172014
76.222655,-0.084165,-0.012602,-0.002186
76.262656,-0.108253,-0.004972,-0.232927
76.292654,0.297143,0.049627,-0.386582
76.322652,-0.134773,0.064406,-0.280620
76.352649,0.089816,0.077779,-0.320133
76.382648,0.157240,0.176772,-0.319605
76.432648,0.044704,0.170396,0.152648
76.462640,-0.037347,0.138591,0.167451
76.502640,-0.044742,0.185533,0.132452
76.522631,0.043919,0.178886,0.236035
76.552611,0.293669,0.202758,0.409198
76.592635,0.035970,0.153210,0.455999
76.622632,0.077532,0.222444,0.387988
76.652630,0.167694,0.149763,0.358719
76.692599,0.324203,0.187637,0.667676
76.722614,0.184010,-0.006067,0.654891
76.752622,0.021426,0.138074,0.950618
76.782596,-0.210561,0.060708,1.082738
76.822594,0.072965,-0.130918,1.407498
76.862613,0.079596,-0.174882,1.895543
76.892613,0.521811,-0.279228,1.777334
76.922611,0.415483,-0.321680,1.875424
76.952602,0.361123,-0.498443,1.705648
76.992607,0.572561,-0.624714,1.703835
77.022605,0.581941,-0.890132,1.589117
77.062603,0.578668,-0.908962,0.873143
77.092602,0.419127,-0.828279,0.124632
77.122600,0.325244,-0.839420,-0.636154
77.152598,0.232091,-0.775124,-0.884730
77.182595,0.190774,-0.829116,-1.464124
77.212576,0.098385,-0.651703,-1.945005
77.252592,-0.720852,-0.350220,-2.090601
77.282590,0.155511,-0.553461,-2.538544
77.332579,-0.050286,-0.248576,-1.570928
77.362578,0.013933,0.110347,-1.165091
77.392578,-0.051398,0.183983,-1.022565
77.422576,0.243322,0.185138,-0.383687
77.462577,0.011870,0.189642,0.188021
77.492575,0.263565,0.225274,0.285387
77.522573,0.162274,0.129524,0.350061
77.552572,0.150697,0.104994,0.423653
77.592569,0.312234,0.016320,0.069466
77.632567,0.000067,0.069498,-0.414182
77.662565,-0.011601,0.066492,-0.751830
77.692563,0.197707,0.183255,-0.680720
77.722560,0.053060,0.183554,-0.628329
77.762546,-0.161840,0.106141,-0.479118
77.792545,0.282097,0.095551,-0.486761
77.822544,0.274245,0.277862,-0.476141
77.852524,0.270694,0.248953,-0.205978
77.892549,0.103015,0.202306,0.032073
77.922547,0.175591,0.166914,0.131228
77.952545,-0.189011,0.206037,0.287526
77.992543,0.226860,0.223131,0.475571
78.022540,0.002576,0.128639,0.711235
78.052539,-0.043849,0.020939,0.977770
78.082537,-0.088593,-0.125092,1.139384
78.112535,0.177081,-0.230141,1.090663
78.142531,0.250928,-0.274996,0.914102
78.202513,-0.006864,-0.415738,-0.031132
78.222513,0.016018,-0.355966,-0.281898
78.262511,0.076894,-0.343875,-1.301161
78.292510,0.047651,-0.221059,-1.609265
78.322508,0.013391,-0.215618,-1.678677
78.362517,0.171083,0.008904,-1.547127
78.392516,0.071677,0.036750,-1.352490
78.422514,0.025214,0.112351,-0.955664
78.452512,0.061836,0.117358,-0.465220
78.502501,0.097567,0.073270,0.140348
78.532500,0.100830,0.015476,0.586648
78.562499,0.302349,-0.043517,0.393952
78.592504,0.087943,0.003073,-0.147452
78.622496,0.064670,0.004342,-0.454089
78.662499,0.069384,0.012965,-0.667735
78.692497,0.316422,0.058273,-0.714557
78.722495,0.240473,0.121261,-0.549650
78.752493,0.011353,0.155945,-0.657319
78.782474,0.295321,0.152157,-0.758912
78.812488,-0.013929,0.093022,-0.493116
78.862486,0.041470,0.133251,-0.173437
78.892484,0.259658,0.206375,-0.286344
78.922482,0.254743,0.281162,-0.592581
78.962479,0.142958,0.266478,-0.571266
78.982479,0.144110,0.287795,-0.566875
79.022476,0.027559,0.332939,-0.784566
79.052463,0.171238,0.366759,-0.844248
79.092470,0.122267,0.516029,-0.659640
79.122468,0.256334,0.580635,-0.409296
79.152467,0.158559,0.576559,-0.344119
79.192464,0.305797,0.567468,0.123783
79.232456,0.212457,0.551620,0.261550
79.262460,0.278944,0.527925,0.447317
79.292458,0.106895,0.399172,0.743683
79.322456,0.178200,0.354216,0.785089
79.352454,0.171595,0.393733,0.666708
79.392451,0.127929,0.382100,0.676271
79.422449,0.076493,0.320402,0.638547
79.452432,0.148224,0.307376,0.784838
79.492430,0.096876,0.177396,0.855723
79.532442,0.239759,0.127972,0.982565
79.562441,0.114165,0.033312,1.108153
79.592439,0.162588,0.021561,0.936054
79.622436,0.043355,-0.047333,0.666451
79.652434,0.055906,-0.082524,0.632064
79.692416,0.114192,-0.243505,0.371528
79.712431,0.282346,-0.236405,0.338405
79.742428,0.260850,-0.192589,0.220051
79.792418,0.184379,-0.140005,-0.133303
79.822404,0.143895,-0.167644,-0.108871
79.862421,0.268358,-0.222482,0.273309
79.892418,0.236395,-0.244807,0.292426
79.922415,0.234573,-0.206453,0.350334
79.952392,0.182605,-0.271437,0.494232
79.992386,0.135096,-0.371490,0.390052
80.032407,0.151461,-0.416217,0.217780
80.052382,0.032146,-0.436205,0.219835
80.082381,0.223436,-0.483510,0.153285
80.122380,0.032690,-0.512922,0.135005
80.162388,0.165477,-0.451303,-0.038848
80.192384,0.124088,-0.404123,-0.403993
80.222397,0.082394,-0.353867,-0.519101
80.252395,0.007740,-0.279011,-0.646888
80.292391,0.046169,-0.113777,-0.806258
80.332388,-0.044829,0.014336,-0.764931
80.362387,0.108308,0.040689,-0.857779
80.392385,0.140787,0.240889,-0.555379
80.422362,0.194757,0.307848,-0.388343
80.462381,0.196171,0.381214,-0.001157
80.492377,0.265853,0.376712,0.162277
80.522375,0.036695,0.396293,0.415665
80.552373,0.209876,0.256228,0.454387
80.592343,0.073616,0.333157,0.729438
80.622341,0.105180,0.248880,0.701187
80.662365,0.111381,0.110228,0.799790
80.692350,0.184389,0.024804,0.745880
80.722362,0.009192,0.018894,0.558908
80.762358,0.265986,0.079260,0.196970
80.792357,-0.159310,0.045094,0.081489
80.822355,-0.045485,-0.004213,0.104697
80.852353,0.060542,-0.136648,0.109286
80.892351,0.211358,-0.139234,0.342161
80.922348,0.177294,-0.157292,0.365576
80.952346,0.126144,-0.095302,0.279384
80.992337,0.150101,-0.136869,0.149865
81.022343,0.074531,-0.148437,0.172258
81.062337,0.230339,-0.117738,-0.100069
81.092325,0.301735,-0.090174,-0.112756
81.122313,0.328265,-0.056085,-0.182025
81.142335,-0.003801,-0.230121,-0.290818
81.192330,-0.068089,0.004586,-0.342936
81.232328,0.056128,0.027657,-0.133419
81.252327,0.153512,-0.034511,0.103415
81.292325,0.116184,-0.076192,0.486773
81.322321,0.306322,-0.174682,0.450927
81.362301,0.261370,-0.110541,0.298500
81.392300,0.317340,-0.034857,0.056362
81.422291,0.135613,-0.130330,-0.073404
81.452296,0.141391,-0.090951,0.032589
81.492286,0.179359,-0.113377,-0.062637
81.522307,-0.046086,-0.087315,0.000599
81.562283,0.104209,0.005121,-0.051283
81.592282,0.031000,0.028710,0.007630
81.622303,0.020942,0.023303,0.210611
81.662300,0.233873,0.051451,0.528048
81.692298,-0.276887,0.010949,0.680738
81.722295,0.087257,-0.036805,0.737017
81.752294,0.766830,-0.060606,0.498457
81.792291,0.168331,-0.234000,0.306391
81.812272,-0.405389,-0.154868,0.272772
81.862287,0.272892,-0.132936,0.260978
81.892285,0.112773,0.220389,0.069566
81.922284,-0.403706,-0.095956,-0.300670
81.962251,-0.728148,-0.144518,0.213072
81.992250,-0.295456,-0.341479,-0.133228
82.022249,-0.153359,-0.306679,-0.011265
82.052248,-0.365518,-0.196287,-0.231780
82.092271,-0.091152,-0.092314,-0.465268
82.122269,-0.344181,-0.143008,-0.279573
82.152268,0.146608,-0.231397,-0.551566
82.192266,0.094800,0.012755,-0.357888
82.222263,-0.043340,-0.031605,-0.569655
82.262260,-0.140795,-0.015467,-0.421026
82.292259,-0.072892,0.062112,-0.235772
82.322256,0.297299,0.047467,-0.332102
82.352255,0.130337,0.125503,0.000659
82.382252,-0.050941,0.127023,-0.092246
82.422248,0.853263,0.306283,-0.220760
82.442249,0.834270,-0.047667,-0.107307
82.492243,0.406215,-0.085273,0.282578
82.522244,0.262843,0.054550,0.598577
82.552231,0.331339,-0.095890,0.535763
82.592238,0.025236,0.005154,0.243632
82.622237,-0.616497,-0.007143,0.004381
82.652234,0.280658,-0.013361,-0.129424
82.692232,-0.178336,0.048314,0.124250
82.722230,-0.090045,-0.122366,-0.060485
82.752228,-0.170155,-0.004984,0.073737
82.782200,-0.111522,-0.031795,0.129136
82.822220,-0.194677,-0.050790,0.116230
82.862215,-0.845538,0.592520,-0.022185
82.882199,0.342724,-0.247873,-0.464089
82.922212,0.200044,0.158331,0.129038
82.952214,0.580947,-0.052444,-0.073082
82.992212,0.216960,0.008977,0.262840
83.022210,0.019142,0.062720,0.274935
83.052208,0.588972,0.017846,0.036286
83.092206,-0.681223,0.157236,-0.112231
83.122189,-0.075883,0.112045,0.129918
83.152188,0.040258,-0.114368,0.421405
83.192200,0.863340,-0.074452,0.031439
83.222197,0.000072,-0.354151,0.436124
83.252195,2.939394,-0.812276,-0.597093
83.302177,-0.012437,0.091532,0.362715
83.322182,0.391834,-0.092444,-0.245280
83.352179,0.272581,-0.005057,0.364254
83.392178,-0.128100,-0.126593,0.036731
83.432183,-0.276986,-0.266022,0.258240
83.462182,-0.360933,-0.150484,-0.175969
83.492179,0.246663,0.035945,-0.516998
83.522177,-0.109148,0.163538,-0.371969
83.552176,0.210570,-0.093060,-0.330717
83.602170,0.027485,-0.062964,0.007127
83.632149,0.328816,0.036624,-0.105655
83.662167,0.123024,0.245140,-0.447437
83.692141,-0.165582,0.194600,-0.409181
83.722165,-0.103447,0.138754,0.138619
83.762162,0.019183,-0.047155,0.416437
83.792160,0.092494,0.039107,0.264104
83.822157,0.125784,0.047694,-0.007247
83.852156,0.291973,0.127306,-0.069888
83.892153,0.082198,0.094715,-0.039032
83.922151,0.104229,0.025385,-0.068267
83.952149,0.104684,0.022109,0.087711
83.982146,0.139886,0.122112,0.348957
84.022145,0.024685,0.081697,0.682123
84.062135,0.015940,0.067887,0.622215
84.092134,0.030160,0.115793,0.692994
84.122133,0.158874,0.030189,0.752327
84.152132,0.160011,0.104842,0.689697
84.192132,0.069565,-0.063325,0.548826
84.232131,0.143799,-0.231804,0.289314
84.262129,-0.152596,-0.224671,0.148386
84.292127,-0.042188,-0.143798,-0.054204
84.322124,-0.017577,-0.220500,-0.280077
84.352122,-0.345446,-0.107946,-0.031497
84.382097,0.048011,-0.238887,-0.045132
84.422090,0.100357,-0.262500,0.040203
84.452116,0.156461,-0.134746,0.138122
84.492102,0.027431,-0.133356,0.070848
84.522085,0.046680,-0.156880,0.126274
84.562100,0.348638,-0.173490,0.002169
84.592099,-0.081143,-0.172583,0.126218
84.622105,-0.022734,-0.136423,0.033446
84.662102,0.425429,-0.173684,0.045957
84.692072,0.064161,-0.290153,0.074251
84.722083,-0.089341,-0.281244,0.003818
84.752077,-0.016311,-0.284537,-0.138324
84.792093,0.271003,-0.196622,-0.296041
84.832091,0.109244,-0.054402,-0.434121
84.862089,0.069020,-0.024483,-0.390140
84.892088,0.605929,-0.108940,-0.198409
84.922086,0.444955,-0.162054,0.152862
84.962068,0.096378,-0.232670,0.099134
84.982081,0.110275,-0.198576,0.077949
85.022071,0.041109,-0.070425,-0.057025
85.062075,0.039709,-0.139702,-0.088391
85.092073,0.004466,-0.117204,-0.150230
85.122071,0.411976,-0.107408,-0.257120
85.152069,0.109925,-0.029982,-0.235253
85.192068,0.207297,0.000654,-0.110097
85.222065,-0.005091,0.068241,-0.001761
85.262062,0.168220,0.208518,0.110089
85.292060,0.048414,0.080877,0.073089
85.312030,0.046943,0.120239,0.247465
85.352057,-0.043013,0.079993,0.121186
85.392055,-0.067949,0.003321,0.060937
85.422034,0.050607,-0.041632,-0.118840
85.462033,-0.042975,0.027894,-0.161175
85.472040,-0.007123,-0.011597,-0.231919
85.522049,0.081615,0.015877,-0.142038
85.562062,-0.013974,0.016054,-0.062948
85.582047,0.259746,0.042091,-0.066075
85.622058,-0.180063,0.067627,-0.119253
85.652056,-0.166431,0.115631,-0.245072
85.692053,-0.094049,0.094138,-0.227043
85.722051,0.022053,0.064002,-0.177018
85.752049,-0.094901,0.021570,-0.071446
85.782048,-0.159750,0.080368,-0.106367
85.822045,0.229653,0.082739,-0.206882
85.862017,0.191758,0.097686,-0.078575
85.892019,0.371624,0.007691,0.001022
85.922018,0.405555,0.155732,0.137523
85.962031,0.152009,0.221394,0.015071
85.992030,0.105092,0.218136,0.351630
86.022029,0.048774,0.042241,0.594287
86.052019,0.443770,-0.113314,0.767497
86.092023,-0.112277,-0.211047,0.441211
86.122013,-0.181190,-0.197965,0.168841
86.162022,0.222186,-0.163471,-0.280889
86.192021,0.439954,-0.158546,-0.455073
86.222019,0.229749,-0.033371,-0.395570
86.252016,0.133071,-0.009721,-0.351610
86.301990,0.160316,0.157409,0.018991
86.331986,0.035368,0.280245,0.107310
86.361985,0.120440,0.244871,0.112438
86.391984,0.165683,0.168948,0.375920
86.432004,-0.030823,0.090554,0.268690
86.461996,0.005787,0.064803,0.435220
86.481982,-0.025513,0.167170,0.530883
86.511975,-0.003287,0.103316,0.204645
86.551997,0.069006,0.140505,0.124698
86.591993,0.278895,0.133610,0.178033
86.631992,-0.012868,0.036136,0.283345
86.641991,0.261648,-0.014586,0.279795
86.691987,0.125156,-0.087846,0.296520
86.721986,-0.155173,-0.082898,0.189768
86.761953,0.182730,-0.111280,-0.005997
86.791977,-0.074795,-0.080856,0.005984
86.821950,-0.068687,-0.128825,-0.031677
86.861964,0.099660,-0.051355,-0.082578
86.891974,0.079180,-0.066202,-0.148899
86.921972,0.054779,-0.069361,-0.115788
86.951970,0.022266,-0.027769,0.000911
86.991967,0.170329,-0.024913,0.019055
87.031942,-0.018564,0.019143,0.178543
87.061962,0.130609,0.004922,0.231853
87.091960,-0.012905,0.000942,0.312000
87.121938,0.112728,-0.035608,0.352371
87.141958,0.039005,-0.109001,0.351985
87.191924,0.424641,-0.196128,0.164433
87.211953,0.116720,-0.130332,0.017420
87.251948,0.129263,-0.131389,-0.059518
87.291947,0.183558,-0.169911,-0.017005
87.321946,0.483259,-0.202670,0.191095
87.361921,-0.023499,-0.163138,0.164721
87.391926,0.094901,-0.053571,0.108666
87.421932,0.125539,-0.014133,-0.017203
87.451925,0.254802,-0.113522,-0.113942
87.491935,0.112947,-0.154938,0.208540
87.531932,0.361690,-0.172498,0.092991
87.561930,-0.004884,-0.169489,-0.011615
87.591928,0.205298,-0.129499,0.084716
87.621927,-0.051062,-0.037226,0.058573
87.661930,-0.141854,-0.170310,0.116629
87.691929,0.145783,-0.229651,0.238039
87.721925,0.208390,-0.186023,0.116459
87.751913,0.225039,-0.205198,0.009503
87.791915,0.035580,-0.278208,-0.239805
87.831913,0.250140,-0.288206,-0.401249
87.851911,-0.116924,-0.159422,-0.460288
87.891909,0.054404,-0.064857,-0.601915
87.921907,0.006177,-0.097764,-0.668329
87.961903,0.161677,0.045705,-0.463501
87.991885,0.288639,-0.018624,-0.302546
88.021899,0.282293,0.074010,-0.040262
88.051880,-0.022372,0.044853,-0.056377
88.091894,0.098964,0.112680,0.205741
88.121875,0.469965,0.101100,0.376543
88.161871,0.073828,0.045467,0.423344
88.191881,0.066889,-0.025895,0.322518
88.221878,0.184061,-0.128394,0.102891
88.261884,-0.080309,-0.026412,-0.120863
88.291882,-0.094885,-0.044392,-0.345335
88.321880,-0.131944,0.069793,-0.408807
88.361877,0.202163,0.027476,-0.433693
88.391875,-0.042856,0.126009,-0.235428
88.411873,0.128519,0.088297,-0.207896
88.461871,-0.104894,0.134554,0.015723
88.491869,0.143259,0.071049,0.112545
88.521867,0.075706,0.138305,0.231530
88.551865,0.097226,-0.001341,0.113227
88.591840,0.124146,0.066817,0.134964
88.621847,0.313000,-0.024167,0.016888
88.661842,-0.111073,0.086532,0.141539
88.691855,-0.156185,0.048298,0.054794
88.721853,-0.268838,0.075184,0.093434
88.751851,-0.090289,0.024702,0.042896
88.791850,0.113704,0.099874,0.165065
88.831833,-0.023581,-0.013788,-0.036398
88.861844,0.065835,0.026548,-0.090689
88.891842,-0.059444,0.040813,-0.342738
88.921840,0.118182,0.036177,-0.399435
88.961837,0.300817,0.087940,-0.270978
89.001836,-0.027762,0.168612,-0.222376
89.021833,0.104877,0.262081,-0.126800
89.051831,0.026671,0.240827,0.093205
89.091813,-0.040259,0.282379,0.450317
89.121811,0.290142,0.310381,0.528390
89.161824,0.077326,0.174478,0.374903
89.181810,-0.052127,0.315499,0.359682
89.211808,0.131106,0.283244,0.074181
89.251819,0.039899,0.216189,0.272569
89.301804,0.001291,0.198013,0.556689
89.321805,0.045935,0.208592,0.519341
89.361790,0.201875,0.048333,0.513080
89.391800,0.265265,0.065163,0.684112
89.421807,0.139745,-0.038934,0.489109
89.461804,0.130346,-0.021876,0.530875
89.491803,0.473623,-0.249749,0.584033
89.521800,0.043209,-0.096376,0.674729
89.561793,-0.690337,-0.658835,0.993420
89.591789,5.922487,-0.025681,-0.904401
89.631792,-3.173152,-0.093084,0.033365
89.651791,1.036908,-0.016162,2.103470
89.681765,0.597416,-0.715690,0.152988
89.731777,0.769981,-0.411020,-0.175533
89.761773,0.275741,-0.402582,0.103499
89.781759,0.203858,-0.254061,-0.251466
89.821782,-0.326250,-0.001326,-0.145241
89.861777,0.336105,-0.163185,0.783276
89.891775,-0.262579,-0.126412,0.284647
89.921773,0.095066,0.172889,-0.811105
89.951772,0.270910,0.186158,-0.416811
89.991748,0.080684,0.021016,0.252254
90.031767,0.178328,-0.025912,-0.152975
90.061765,0.175872,0.024998,0.390085
90.091763,0.006298,0.058143,0.969415
90.111760,0.356351,0.030728,0.918963
90.141753,0.163585,0.070813,0.500391
90.191755,-0.097175,-0.016260,0.991468
90.221736,0.223954,-0.075757,1.275276
90.241754,0.216751,-0.293210,1.255919
90.291733,0.070459,-0.374771,0.853763
90.331747,0.335190,-0.491397,0.503671
90.361745,-0.001049,-0.492809,0.578536
90.381730,0.370106,-0.433838,0.362942
90.421741,0.105740,-0.361724,0.175352
90.451739,0.376392,-0.499620,-0.306280
90.491748,-0.115754,-0.556073,-0.319294
90.531747,-0.030053,-0.445242,-0.629629
90.561744,-0.185645,-0.324333,-0.816977
90.591742,0.086126,-0.276812,-1.140525
90.621740,0.151237,-0.247118,-1.121144
90.661736,0.054587,-0.084804,-1.229213
90.691705,-0.023160,0.020801,-1.003168
90.721712,-0.023818,0.029094,-0.521245
90.751711,0.128330,-0.003231,-0.520390
90.791729,0.012582,0.095114,-0.531575
90.821726,0.097568,0.229181,-0.396232
90.851724,0.229264,0.303432,-0.237723
90.891722,-0.014000,0.202553,0.067361
90.921720,-0.000567,0.197081,0.292774
90.961702,0.225795,0.196466,0.506410
90.981716,0.237287,0.146343,0.491173
91.021713,-0.001408,0.005218,0.235091
91.051700,0.230076,0.008000,0.021359
91.091709,-0.129800,0.072811,-0.051924
91.121706,0.153137,0.109554,-0.189621
91.161702,0.045540,0.088297,0.171429
91.191677,0.135854,0.153193,0.032864
91.231693,-0.027667,0.162021,0.172920
91.251677,0.110108,0.147774,0.330941
91.291680,0.395197,0.055440,0.350667
91.321688,-0.000844,0.065925,0.352956
91.361671,0.156721,0.187175,0.206137
91.391670,0.231160,0.156980,0.566025
91.431688,0.296974,-0.042605,0.731593
91.461685,-0.010261,-0.139060,1.002526
91.491683,0.463421,-0.151664,0.618765
91.521677,0.081837,-0.153938,0.485285
91.551679,-0.043672,-0.207902,0.236067
91.591667,0.125340,-0.221037,0.156888
91.621649,0.036141,-0.306035,-0.019855
91.661671,-0.005648,-0.287414,-0.841391
91.691669,-0.221182,-0.013065,-0.601564
91.731667,0.096066,-0.045773,-0.578313
91.761665,-0.011765,-0.106633,0.106263
91.791663,0.126122,-0.017430,0.181513
91.831637,0.043766,0.021042,0.368725
91.851633,0.087782,0.040084,0.467118
91.891656,0.479705,-0.031217,0.583096
91.921655,0.191007,-0.176502,0.345167
91.961651,-0.164323,-0.222684,0.496719
91.991649,0.143552,-0.419500,0.425046
92.021647,0.362592,-0.185273,0.053387
92.061644,0.011741,-0.179234,0.218047
92.091642,0.225841,-0.175289,-0.113206
92.121641,0.418448,-0.202372,-0.118743
92.161638,0.351741,-0.169215,-0.033068
92.191622,0.024587,-0.227992,-0.413686
92.221634,-0.360874,-0.212186,-0.440219
92.251633,0.018774,-0.332258,-0.811726
92.301602,0.046229,-0.177072,-0.000984
92.331602,0.057927,-0.155587,-0.386584
92.361600,-0.016244,-0.118146,-0.309432
92.391599,0.146106,-0.166421,-0.439020
92.421598,0.271521,-0.139999,-0.544682
92.461618,0.095889,-0.189746,-0.470121
92.481618,0.212344,-0.106872,-0.433366
92.521615,0.095007,-0.085239,-0.530449
92.561612,0.237520,-0.048374,-0.271712
92.591590,0.043946,-0.076598,-0.525047
92.621589,-0.076124,0.017500,-0.552282
92.651588,-0.099915,0.089974,-0.403361
92.681587,0.093165,-0.111949,-0.403448
92.731600,0.036961,0.036409,-0.499850
92.751581,-0.091123,-0.047519,-0.507760
92.791598,0.135145,0.058551,-0.449534
92.821595,-0.056814,-0.006034,-0.476555
92.861567,0.216607,0.061654,-0.627969
92.891565,0.176756,0.178979,-0.561070
92.921588,-0.004048,0.242287,-0.567090
92.951586,0.386946,0.119941,-0.702482
92.991576,0.275212,0.177433,-0.036486
93.031581,0.301680,0.157306,-0.419113
93.061580,0.143575,0.119172,-0.193840
93.091578,0.162646,0.181013,-0.297145
93.121575,0.145783,0.231331,-0.653731
93.151567,0.155309,0.259053,-0.704868
93.191566,-0.014818,0.290332,-0.664054
93.221565,0.167223,0.439088,-0.491257
93.261563,0.106435,0.378265,-0.097313
93.291565,0.347787,0.378669,0.143036
93.331561,0.172247,0.329799,0.603317
93.361559,0.191393,0.277491,0.657517
93.391558,0.161074,0.172041,0.611000
93.421556,0.075264,0.104070,0.479226
93.461524,0.020568,0.159726,0.282948
93.491523,-0.045859,0.049008,0.273807
93.521549,-0.098814,-0.054212,0.132215
93.561541,0.053742,0.063797,0.094363
93.591545,-0.394041,-0.102742,0.446147
93.621543,0.197486,-0.084797,0.268740
93.661511,-0.035496,-0.187773,0.454142
93.691510,0.208666,-0.120110,0.487578
93.721521,0.129128,-0.080341,0.191851
93.751531,0.105927,-0.179352,0.025701
93.791532,0.000909,-0.171538,-0.208225
93.831529,-0.011069,-0.168092,-0.656958
93.861527,0.406436,-0.106119,-0.686634
93.891525,-0.193396,-0.086746,-0.481240
93.931499,0.134687,0.017027,-0.554471
93.961519,-0.132444,0.112369,-0.269672
93.981519,-0.068734,0.019452,-0.219980
94.021516,0.230933,0.124301,-0.183147
94.051515,0.130822,0.155464,-0.227828
94.091512,-0.114301,0.100587,-0.241961
94.121510,-0.242522,0.160510,-0.106975
94.161507,0.140159,0.097883,-0.243105
94.191495,0.210270,0.249046,-0.117281
94.221494,0.355054,0.190055,-0.055668
94.261501,0.195137,0.117565,0.671595
94.291499,0.228890,0.183676,0.488175
94.321497,0.414736,0.433832,0.391207
94.361468,0.108086,0.022959,0.511895
94.391492,0.097049,0.061448,0.336881
94.421485,0.141252,-0.081502,0.330742
94.461484,0.116142,-0.083477,0.125592
94.491483,0.050807,-0.037399,-0.056846
94.521485,-0.003325,-0.038372,0.000858
94.561482,0.130452,-0.068478,-0.091227
94.581480,0.002639,-0.088449,-0.082759
94.621476,0.164918,-0.121954,0.102931
94.661475,0.036799,0.071287,0.116846
94.691472,-0.005956,-0.037392,0.187846
94.721471,0.054912,-0.019424,0.226395
94.751469,0.117612,-0.059905,-0.122162
94.791467,0.106528,-0.011982,0.031963
94.821465,-0.020392,0.085407,-0.153384
94.861452,0.105323,0.059511,-0.097997
94.881461,0.165143,-0.011057,0.049049
94.921458,0.179125,0.027289,0.051394
94.961455,0.058982,0.076599,0.051693
94.991431,-0.308394,-0.040969,0.175076
95.021451,0.019798,-0.090642,-0.038968
95.061448,-0.043117,-0.031992,0.216733
95.091423,-0.140896,-0.044426,-0.065387
95.131445,0.085304,-0.030080,0.076744
95.161443,-0.139285,-0.044519,0.117319
95.191440,0.261718,0.015445,-0.087591
95.221439,0.312834,0.033462,-0.105668
95.271420,0.068075,0.055326,-0.087326
95.301407,0.185612,0.044501,-0.291490
95.321418,0.096635,0.147027,-0.256715
95.361430,0.108914,0.192949,-0.476569
95.391427,0.125258,0.223784,-0.387721
95.431425,0.127935,0.256756,-0.243297
95.461424,0.110433,0.239630,-0.023284
95.491443,0.161067,0.272486,0.136086
95.521442,0.116409,0.396136,0.368633
95.561439,0.084579,0.261787,0.562362
95.591437,-0.025791,0.423937,0.850697
95.621436,-0.063492,0.269425,0.885116
95.651433,0.596368,0.218917,0.850490
95.681432,0.271715,0.119189,1.353266
95.721429,-0.387011,-0.282958,0.514605
95.751427,-0.167852,-0.107944,1.319000
95.791399,-0.016888,-0.286924,0.383074
95.821405,0.332354,-0.247353,0.695200
95.851404,0.756829,-0.288785,0.624353
95.891418,0.383661,-0.206793,0.358844
95.931417,0.156863,-0.290548,0.453531
95.951415,0.210605,-0.117775,0.065547
95.991412,0.182402,-0.186068,0.326952
96.021410,-0.012233,-0.287000,0.515562
96.061408,0.549509,-0.401086,0.145113
96.091394,0.130519,-0.336227,0.242799
96.121404,0.148392,-0.210361,0.020178
96.151402,-0.005033,-0.237732,0.017927
96.201374,0.149691,-0.337163,-0.109804
96.221373,-0.093568,-0.204439,-0.074826
96.261372,0.418134,-0.222761,0.155740
96.291370,-0.305736,-0.193422,0.173169
96.321393,0.126705,-0.124021,0.144599
96.361390,0.176480,-0.161423,0.098438
96.391388,0.119902,-0.147405,0.033352
96.421387,0.011374,-0.164240,0.078161
96.461383,-0.017251,-0.191249,0.002110
96.491382,0.208335,-0.059079,-0.049524
96.521380,0.163122,-0.146364,-0.113032
96.561378,0.087936,-0.113195,-0.014533
96.591376,0.028293,-0.148258,0.020548
96.621374,0.098620,-0.103625,-0.013415
96.661375,0.146371,-0.121839,-0.046648
96.691365,-0.021183,-0.083172,0.134174
96.721368,0.167718,0.022107,-0.196516
96.761365,0.091746,-0.005569,0.066192
96.791363,0.123229,-0.017298,-0.073848
96.831361,-0.104959,0.132431,-0.003521
96.851360,0.026186,-0.090656,-0.038969
96.891357,0.249647,0.034556,0.126209
96.921356,0.017134,-0.034189,0.072464
96.951354,0.096335,0.091434,0.063519
96.991350,0.017919,0.041415,0.247039
97.021349,0.059228,-0.083445,0.320066
97.051348,0.017161,-0.022635,0.424052
97.101338,0.139635,0.062419,0.334739
97.121336,0.077945,-0.167681,0.268313
97.161335,0.099597,-0.053653,0.255044
97.191334,0.042561,-0.101426,0.108416
97.221337,0.061230,-0.218722,0.078918
97.261335,0.101472,-0.135750,0.265277
97.291333,0.127581,-0.189060,0.157063
97.321331,0.046750,-0.138758,0.128510
97.351329,-0.179712,-0.210661,-0.034238
97.391327,0.088591,-0.230464,-0.015178
97.421325,-0.142288,-0.124370,-0.081853
97.461323,-0.036372,-0.144959,0.111401
97.481322,0.093272,-0.190010,0.079068
97.521320,0.074075,-0.138761,0.008836
97.561303,0.169008,-0.089935,0.009082
97.591302,0.084658,-0.088640,-0.071026
97.621293,0.156298,-0.064317,0.001746
97.661311,0.079579,-0.079068,-0.000454
97.701284,0.123114,-0.105814,-0.009159
97.721308,0.072950,-0.073681,-0.086968
97.761278,0.144534,-0.034415,-0.050441
97.791304,0.008419,0.019198,-0.055457
97.831302,0.332794,0.030261,-0.192236
97.861275,0.325406,0.046268,-0.188941
97.881299,0.075165,0.007368,-0.152768
97.921296,0.118443,0.016758,0.066309
97.951294,0.020357,-0.040601,0.089523
98.001270,0.183273,-0.035636,0.087375
98.031268,0.098082,-0.061043,0.112898
98.061265,-0.024280,-0.041580,0.118377
98.091267,0.092272,-0.119617,0.018553
98.121266,0.139112,-0.103721,-0.002740
98.161282,0.100744,-0.096162,-0.024059
98.191281,0.191124,-0.032344,-0.139124
98.221279,0.189949,-0.073924,-0.127599
98.261275,0.137987,-0.006640,-0.135764
98.291274,0.068073,0.032925,-0.061806
98.331273,0.154640,0.084945,-0.014528
98.361271,0.160773,0.028439,-0.034073
98.381270,0.131340,0.065777,0.049480
98.421268,0.317009,0.129293,0.110687
98.461242,0.334564,0.022500,0.408197
98.491235,0.214201,0.022779,0.392201
98.521234,0.138749,-0.189170,0.331219
98.561259,-0.066929,-0.117209,0.186353
98.591258,0.117856,-0.070612,-0.028196
98.631256,-0.096831,-0.059526,0.089447
98.651254,0.147289,-0.165551,-0.044752
98.691252,0.016611,-0.147170,0.029104
98.731225,-0.004085,-0.170514,-0.099235
98.751249,0.196589,0.038022,-0.173997
98.791235,0.214411,-0.033441,-0.184011
98.821244,0.059272,-0.086477,-0.017585
98.861242,-0.091388,-0.103117,-0.175773
98.881242,0.371538,0.000414,-0.375117
98.921233,0.149109,-0.017235,-0.320669
98.961231,0.041552,0.093770,-0.099930
98.991230,0.143901,0.042317,0.004472
99.031233,0.035828,0.104341,0.109548
99.051228,0.071564,0.038202,0.031178
99.091229,0.094844,0.127600,0.234672
99.121228,0.200230,0.127366,0.227167
99.161223,0.186174,0.164767,0.111982
99.191223,-0.073278,0.005467,0.056676
99.231223,0.097422,0.032761,0.139057
99.261220,0.053772,-0.119503,-0.038066
99.281219,0.161979,-0.007854,0.055478
99.321217,0.067908,-0.021448,-0.053557
99.361200,-0.030395,0.024523,0.132632
99.391198,0.204731,0.041090,0.052532
99.421186,0.177626,-0.035570,-0.020539
99.461208,0.115895,0.069992,0.220461
99.491208,0.166816,-0.062186,-0.044189
99.521205,0.008858,-0.023543,0.140906
99.551203,0.088570,0.043502,0.015177
99.591202,0.159816,0.008156,0.025650
99.631189,0.112555,0.077490,0.162806
99.651198,0.262032,-0.033675,0.074545
99.681197,0.060319,0.000817,0.230778
99.721170,0.166311,0.003857,0.066226
99.751175,0.242383,0.053742,0.166918
99.791190,-0.046280,-0.053323,0.251875
99.831170,-0.021900,-0.104561,0.275094
99.861188,0.105732,-0.100560,0.224868
99.891186,0.187055,-0.017607,0.262701
99.921162,-0.105435,-0.186428,0.208419
99.961181,0.082690,-0.187864,0.098315
99.981159,0.172212,-0.160345,0.094171
100.021179,-0.134835,-0.207588,0.014918
100.061156,-0.039844,-0.129972,0.001432
100.091174,-0.103266,-0.224665,-0.089893
100.131173,0.210936,-0.147522,-0.145104
100.161152,0.047779,-0.217514,-0.147587
100.191151,0.083451,-0.144081,-0.054235
100.221150,0.041208,-0.200402,-0.228694
100.251148,0.067261,-0.064007,-0.220471
100.281136,0.033825,-0.116129,-0.303022
100.321162,0.114954,-0.029945,-0.333553
100.351161,0.145672,-0.048121,-0.365714
100.391142,0.108185,-0.024534,-0.467079
100.431141,0.134805,-0.013927,-0.478780
100.461155,0.109713,0.076722,-0.430195
100.491138,0.159944,0.153379,-0.456498
100.531180,0.058263,0.166321,-0.292927
100.561179,0.087154,0.221700,-0.309725
100.591178,0.104773,0.251431,-0.149296
100.621176,0.206091,0.229842,-0.068236
100.661173,0.106639,0.268362,0.098680
100.701141,0.276242,0.250862,0.222485
100.731170,-0.006446,0.245011,0.407365
100.751169,0.212929,0.248778,0.415881
100.791167,0.012583,0.151123,0.470952
100.821165,0.100415,0.162747,0.276534
100.851164,0.083636,0.227811,0.286512
100.891136,0.151588,0.140221,0.324479
100.921159,0.154759,0.101817,0.361664
100.951158,0.126306,0.102899,0.458907
100.991156,0.111402,0.106133,0.455723
101.031155,0.054344,-0.086706,0.470703
101.051145,0.174239,0.021720,0.559953
101.091150,0.067877,-0.090952,0.372378
101.121131,0.003391,-0.086441,0.166204
101.161147,0.101254,-0.103714,0.155402
101.181140,0.055280,-0.115312,0.105131
101.221143,0.010785,-0.185475,-0.093978
101.251142,0.122481,-0.053616,0.074469
101.301137,0.205463,-0.079392,0.081786
101.331126,0.009289,-0.108774,0.028248
101.361133,-0.024327,-0.046906,0.108731
101.391132,0.084404,0.042430,0.047226
101.421116,0.051341,0.014779,0.060971
101.461132,0.087811,0.078654,0.076272
101.491130,0.162712,-0.065402,0.011355
101.521127,0.121646,-0.009918,0.100352
101.561125,-0.009293,-0.054428,0.159973
101.591123,0.038577,0.020140,0.058867
101.621113,0.088226,-0.025775,-0.019395
101.651095,-0.058011,0.025641,0.154014
101.681094,0.294670,0.105873,0.144755
101.721101,-0.136533,-0.007294,0.282067
101.761089,0.046985,-0.045996,0.099103
101.781090,0.031863,0.040300,0.282288
101.821112,0.164671,-0.034620,0.274366
101.861108,0.139036,-0.062283,0.279562
101.891107,0.155942,-0.065500,0.240007
101.931106,-0.035638,-0.025613,0.217834
101.951104,0.035910,0.020059,0.235164
101.991104,0.031389,0.007312,0.162439
102.021102,0.130219,0.023121,0.080231
102.051099,0.156170,0.076332,0.151036
102.091088,0.497401,-0.086483,0.156471
102.121097,0.196175,0.055874,0.378497
102.151093,-0.070595,-0.151432,0.424433
102.191093,0.158687,-0.107208,0.494072
